ItemNb,Condition,Sound1,DurationSound1,Sound2,DurationSound2,Sound3,DurationSound3,ExpectedKey,Condition2,trials_task3.thisRepN,trials_task3.thisTrialN,trials_task3.thisN,trials_task3.thisIndex,trials_task1.thisRepN,trials_task1.thisTrialN,trials_task1.thisN,trials_task1.thisIndex,thisRow.t,notes,Welcome.started,textWelcomeMessage.started,keyWelcome.started,Welcome.stopped,keyWelcome.keys,keyWelcome.rt,keyWelcome.duration,Welcome_2.started,textWelcome2.started,key_resp_5.started,Welcome_2.stopped,key_resp_5.keys,key_resp_5.rt,key_resp_5.duration,Welcome_3.started,textWelcome3.started,key_resp_6.started,Welcome_3.stopped,key_resp_6.keys,key_resp_6.rt,key_resp_6.duration,blank.started,blank1.started,blank1.stopped,blank.stopped,volume_explanation.started,text_volume.started,key_resp_8.started,volume_explanation.stopped,key_resp_8.keys,key_resp_8.rt,key_resp_8.duration,volume.started,text_2.started,key_resp_7.started,sound_testvolume.started,volume.stopped,key_resp_7.keys,key_resp_7.rt,key_resp_7.duration,explanation.started,text.started,key_info_oddity.started,explanation.stopped,key_info_oddity.keys,key_info_oddity.rt,key_info_oddity.duration,task3.started,key_replay3.started,text_recording1_3.started,sound1_3.started,text_recording1_3.stopped,key_resp_question3.started,text_questiontask3.started,task3.stopped,key_resp_question3.keys,key_resp_question3.rt,key_resp_question3.duration,key_replay3.keys,sound1_3.stopped,explanation_3.started,text_4.started,key_resp_3.started,explanation_3.stopped,key_resp_3.keys,key_resp_3.rt,key_resp_3.duration,explanation_1.started,text_explanation_1.started,key_resp.started,explanation_1.stopped,key_resp.keys,key_resp.rt,key_resp.duration,task1.started,key_replay1.started,text_recording1.started,sound1.started,text_recording1.stopped,sound1.stopped,text_recording2.started,sound2.started,text_recording2.stopped,sound2.stopped,text_recording3.started,sound3.started,text_recording3.stopped,sound3.stopped,key_resp_question1.started,text_question1.started,task1.stopped,key_resp_question1.keys,key_resp_question1.rt,key_resp_question1.duration,key_replay1.keys,replay_count,Bye.started,text_6.started,Bye.stopped,participant,session,date,expName,psychopyVersion,frameRate,expStart,
,,,,,,,,,,,,,,,,,,,,0.02643199998419732,0.04444470000453293,0.04444470000453293,5.6043039000360295,space,5.543481000000611,None,,,,,,,,,,,,,,,,,,,,,,,,,,,,,,,,,,,,,,,,,,,,,,,,,,,,,,,,,,,,,,,,,,,,,,,,,,,,,,,,,,,,,,,,,,,,,Adam,001,2024-02-06_20h25.37.502,M2_experiment1,2023.2.3,58.63451934608615,2024-02-06 20h25.53.196812 +0100,
,,,,,,,,,,,,,,,,,,,,,,,,,,,5.604341300087981,5.619635400013067,5.619635400013067,13.08671589998994,space,7.456144399940968,None,,,,,,,,,,,,,,,,,,,,,,,,,,,,,,,,,,,,,,,,,,,,,,,,,,,,,,,,,,,,,,,,,,,,,,,,,,,,,,,,,,,,,,Adam,001,2024-02-06_20h25.37.502,M2_experiment1,2023.2.3,58.63451934608615,2024-02-06 20h25.53.196812 +0100,
,,,,,,,,,,,,,,,,,,,,,,,,,,,,,,,,,,13.086752200033516,13.103002400021069,13.103002400021069,30.164452200056985,space,17.046282000024803,None,,,,,,,,,,,,,,,,,,,,,,,,,,,,,,,,,,,,,,,,,,,,,,,,,,,,,,,,,,,,,,,,,,,,,,,,,,,,,,,Adam,001,2024-02-06_20h25.37.502,M2_experiment1,2023.2.3,58.63451934608615,2024-02-06 20h25.53.196812 +0100,
,,,,,,,,,,,,,,,,,,,,,,,,,,,,,,,,,,,,,,,,,30.16449009999633,30.179796600015834,31.180351000046358,31.16419310006313,31.164213299984112,31.180351000046358,31.180351000046358,36.362699300050735,space,5.171478499891236,None,,,,,,,,,,,,,,,,,,,,,,,,,,,,,,,,,,,,,,,,,,,,,,,,,,,,,,,,,,,,,,,,,,,,Adam,001,2024-02-06_20h25.37.502,M2_experiment1,2023.2.3,58.63451934608615,2024-02-06 20h25.53.196812 +0100,
,,,,,,,,,,,,,,,,,,,,,,,,,,,,,,,,,,,,,,,,,,,,,,,,,,,,36.3627483000746,36.39014999999199,37.3778235000791,37.37783442008076,45.75952830002643,space,8.372606199933216,None,,,,,,,,,,,,,,,,,,,,,,,,,,,,,,,,,,,,,,,,,,,,,,,,,,,,,,,,,,,,Adam,001,2024-02-06_20h25.37.502,M2_experiment1,2023.2.3,58.63451934608615,2024-02-06 20h25.53.196812 +0100,
,,,,,,,,,,,,,,,,,,,,,,,,,,,,,,,,,,,,,,,,,,,,,,,,,,,,,,,,,,,,45.77737800008617,45.79025910003111,45.79025910003111,53.19029010005761,space,7.384314600029029,None,,,,,,,,,,,,,,,,,,,,,,,,,,,,,,,,,,,,,,,,,,,,,,,,,,,,,Adam,001,2024-02-06_20h25.37.502,M2_experiment1,2023.2.3,58.63451934608615,2024-02-06 20h25.53.196812 +0100,
40,ModifiedSH,resources/new_sounds_2/F5fresher.wav,0.567437641723356,None,None,None,None,r,F,0,0,0,16,,,,,53.23623210005462,,,,,,,,,,,,,,,,,,,,,,,,,,,,,,,,,,,,,,,,,,,,,,,,,53.22400960000232,53.23623210005462,53.7056295000948,0.5154541999800131,54.27486250002403,54.27486250002403,54.772412699996494,59.188665300025605,r,4.902307800017297,None,None,,,,,,,,,,,,,,,,,,,,,,,,,,,,,,,,,,,,,,,,,Adam,001,2024-02-06_20h25.37.502,M2_experiment1,2023.2.3,58.63451934608615,2024-02-06 20h25.53.196812 +0100,
49,NotModifiedT,resources/new_sounds_not_modified/M2lot.wav,0.466575772426751,None,None,None,None,e,M,0,1,1,25,,,,,59.204608500003815,,,,,,,,,,,,,,,,,,,,,,,,,,,,,,,,,,,,,,,,,,,,,,,,,59.189813300035894,59.204608500003815,59.70587280008476,0.51650599995628,60.20000150008127,60.1721992000239,60.67306830000598,63.63694120000582,e,3.4621339000295848,None,None,0.9834826999576762,,,,,,,,,,,,,,,,,,,,,,,,,,,,,,,,,,,,,,,,Adam,001,2024-02-06_20h25.37.502,M2_experiment1,2023.2.3,58.63451934608615,2024-02-06 20h25.53.196812 +0100,
27,ModifiedSH,resources/new_sounds_2/M4flesh.wav,0.722767978649223,None,None,None,None,r,M,0,2,2,3,,,,,63.656113900011405,,,,,,,,,,,,,,,,,,,,,,,,,,,,,,,,,,,,,,,,,,,,,,,,,63.63835490006022,63.656113900011405,64.13924140005838,0.5015581999905407,64.87155580008402,64.87155580008402,65.36852360004559,66.55309150007088,r,1.669688900001347,None,None,,,,,,,,,,,,,,,,,,,,,,,,,,,,,,,,,,,,,,,,,Adam,001,2024-02-06_20h25.37.502,M2_experiment1,2023.2.3,58.63451934608615,2024-02-06 20h25.53.196812 +0100,
54,NotModifiedSH,resources/new_sounds_not_modified/F5thrasher.wav,0.585496600933162,None,None,None,None,e,F,0,3,3,30,,,,,66.56850110006053,,,,,,,,,,,,,,,,,,,,,,,,,,,,,,,,,,,,,,,,,,,,,,,,,66.55386059999,66.56850110006053,67.06825310003478,0.51476749998983,67.68444800004363,67.65151720005088,68.1515580000123,69.85130069998559,r,2.1942080999724567,None,None,,,,,,,,,,,,,,,,,,,,,,,,,,,,,,,,,,,,,,,,,Adam,001,2024-02-06_20h25.37.502,M2_experiment1,2023.2.3,58.63451934608615,2024-02-06 20h25.53.196812 +0100,
45,NotModifiedSH,resources/new_sounds_not_modified/F3mosh.wav,0.628649263052651,None,None,None,None,e,F,0,4,4,21,,,,,69.86775450001005,,,,,,,,,,,,,,,,,,,,,,,,,,,,,,,,,,,,,,,,,,,,,,,,,69.85211069998331,69.86775450001005,70.36627910006791,0.5145305000478402,71.0002220000606,70.98342589999083,71.48272430000361,74.16687150008511,r,3.1702056999783963,None,None,1.1484702000161633,,,,,,,,,,,,,,,,,,,,,,,,,,,,,,,,,,,,,,,,Adam,001,2024-02-06_20h25.37.502,M2_experiment1,2023.2.3,58.63451934608615,2024-02-06 20h25.53.196812 +0100,
25,ModifiedSH,resources/new_sounds_2/F1swoosh.wav,0.770486715748874,None,None,None,None,r,F,0,5,5,1,,,,,74.18266709998716,,,,,,,,,,,,,,,,,,,,,,,,,,,,,,,,,,,,,,,,,,,,,,,,,74.16764800006058,74.18266709998716,74.68202300008852,0.5147467999486253,75.46522650006227,75.4485893000383,75.9481422000099,77.36584770004265,r,1.8996471000136808,None,None,,,,,,,,,,,,,,,,,,,,,,,,,,,,,,,,,,,,,,,,,Adam,001,2024-02-06_20h25.37.502,M2_experiment1,2023.2.3,58.63451934608615,2024-02-06 20h25.53.196812 +0100,
31,NotModifiedT,resources/new_sounds_not_modified/F3footer.wav,0.573733808005514,None,None,None,None,e,F,0,6,6,7,,,,,77.38153490005061,,,,,,,,,,,,,,,,,,,,,,,,,,,,,,,,,,,,,,,,,,,,,,,,,77.3667966000503,77.38153490005061,77.88108279998414,0.5147171999560669,78.46397020004224,78.4473883000901,78.94703040004242,82.64785419998225,e,4.187072200002149,None,None,1.0975892000133172,,,,,,,,,,,,,,,,,,,,,,,,,,,,,,,,,,,,,,,,Adam,001,2024-02-06_20h25.37.502,M2_experiment1,2023.2.3,58.63451934608615,2024-02-06 20h25.53.196812 +0100,
39,ModifiedSH,resources/new_sounds_2/M7fresher.wav,0.497256235827664,None,None,None,None,r,M,0,7,7,15,,,,,82.66306930000428,,,,,,,,,,,,,,,,,,,,,,,,,,,,,,,,,,,,,,,,,,,,,,,,,82.64855210005771,82.66306930000428,83.16244500002358,0.5142456000903621,83.66243430005852,83.64576039998792,84.14528250007425,86.39607180003077,e,2.7341309000039473,None,None,1.0142356000142172,,,,,,,,,,,,,,,,,,,,,,,,,,,,,,,,,,,,,,,,Adam,001,2024-02-06_20h25.37.502,M2_experiment1,2023.2.3,58.63451934608615,2024-02-06 20h25.53.196812 +0100,
29,NotModifiedT,resources/new_sounds_2/M4getting.wav,0.612123590008089,None,None,None,None,e,M,0,8,8,5,,,,,86.41156849998515,,,,,,,,,,,,,,,,,,,,,,,,,,,,,,,,,,,,,,,,,,,,,,,,,86.39684990001842,86.41156849998515,86.91282140009571,0.5164135999511927,87.54238410003018,87.51535370002966,88.01128640002571,88.81429410004057,e,1.2804000999312848,None,None,1.145973899983801,,,,,,,,,,,,,,,,,,,,,,,,,,,,,,,,,,,,,,,,Adam,001,2024-02-06_20h25.37.502,M2_experiment1,2023.2.3,58.63451934608615,2024-02-06 20h25.53.196812 +0100,
26,ModifiedSH,resources/new_sounds_2/F2fleshing.wav,0.620294784580499,None,None,None,None,r,F,0,9,9,2,,,,,88.83155330002774,,,,,,,,,,,,,,,,,,,,,,,,,,,,,,,,,,,,,,,,,,,,,,,,,88.81579450005665,88.83155330002774,89.32728460000362,0.5122829000465572,89.9606431000866,89.9437542000087,90.44376689998899,92.2981116999872,e,2.3459467999637127,None,None,1.1456363999750465,,,,,,,,,,,,,,,,,,,,,,,,,,,,,,,,,,,,,,,,Adam,001,2024-02-06_20h25.37.502,M2_experiment1,2023.2.3,58.63451934608615,2024-02-06 20h25.53.196812 +0100,
24,NotModifiedT,resources/new_sounds_not_modified/F1party.wav,0.63399526438517,None,None,None,None,e,F,0,10,10,0,,,,,92.31323090009391,,,,,,,,,,,,,,,,,,,,,,,,,,,,,,,,,,,,,,,,,,,,,,,,,92.2990778000094,92.31323090009391,92.80949080002028,0.5108867000089958,93.44242920004763,93.44242920004763,93.94276340003125,94.4305082000792,e,0.9736177999293432,None,None,,,,,,,,,,,,,,,,,,,,,,,,,,,,,,,,,,,,,,,,,Adam,001,2024-02-06_20h25.37.502,M2_experiment1,2023.2.3,58.63451934608615,2024-02-06 20h25.53.196812 +0100,
43,NotModifiedT,resources/new_sounds_not_modified/F2feat.wav,0.644364234737267,None,None,None,None,e,F,0,11,11,19,,,,,94.45607309998013,,,,,,,,,,,,,,,,,,,,,,,,,,,,,,,,,,,,,,,,,,,,,,,,,94.43147240008693,94.45607309998013,94.94245970004704,0.5114567999262363,95.59186889999546,95.57524570007809,96.07520239998121,96.68089750001673,e,1.09918830008246,None,None,1.1608428999315947,,,,,,,,,,,,,,,,,,,,,,,,,,,,,,,,,,,,,,,,Adam,001,2024-02-06_20h25.37.502,M2_experiment1,2023.2.3,58.63451934608615,2024-02-06 20h25.53.196812 +0100,
47,ModifiedT,resources/new_sounds_2/M6root.wav,0.557210884353742,None,None,None,None,r,M,0,12,12,23,,,,,96.69556100002956,,,,,,,,,,,,,,,,,,,,,,,,,,,,,,,,,,,,,,,,,,,,,,,,,96.6820308000315,96.69556100002956,97.19133960001636,0.5099307000637054,97.7577190999873,97.74112060002517,98.24117709998973,99.81287989998236,e,2.0693287999602035,None,None,1.0763073000125587,,,,,,,,,,,,,,,,,,,,,,,,,,,,,,,,,,,,,,,,Adam,001,2024-02-06_20h25.37.502,M2_experiment1,2023.2.3,58.63451934608615,2024-02-06 20h25.53.196812 +0100,
42,NotModifiedT,resources/new_sounds_not_modified/F4feat.wav,0.478604920503187,None,None,None,None,e,F,0,13,13,18,,,,,99.82747760007624,,,,,,,,,,,,,,,,,,,,,,,,,,,,,,,,,,,,,,,,,,,,,,,,,99.81383420003112,99.82747760007624,100.3237800000934,0.5104140000184998,100.80667750001885,100.80667750001885,101.31302900006995,102.55152209999505,e,1.7408207999542356,None,None,0.9938066999893636,,,,,,,,,,,,,,,,,,,,,,,,,,,,,,,,,,,,,,,,Adam,001,2024-02-06_20h25.37.502,M2_experiment1,2023.2.3,58.63451934608615,2024-02-06 20h25.53.196812 +0100,
28,ModifiedSH,resources/new_sounds_2/F3flushing.wav,0.687845804988662,None,None,None,None,r,F,0,14,14,4,,,,,102.57076060003601,,,,,,,,,,,,,,,,,,,,,,,,,,,,,,,,,,,,,,,,,,,,,,,,,102.55379790009465,102.57076060003601,103.06040830002166,0.5075776000740007,103.75483540003188,103.75483540003188,104.24537370004691,105.64085960004013,e,1.870613900013268,None,None,1.202914600027725,,,,,,,,,,,,,,,,,,,,,,,,,,,,,,,,,,,,,,,,Adam,001,2024-02-06_20h25.37.502,M2_experiment1,2023.2.3,58.63451934608615,2024-02-06 20h25.53.196812 +0100,
41,ModifiedT,resources/new_sounds_2/F4utter.wav,0.53952380952381,None,None,None,None,r,F,0,15,15,17,,,,,105.65904689999297,,,,,,,,,,,,,,,,,,,,,,,,,,,,,,,,,,,,,,,,,,,,,,,,,105.64209740003571,105.65904689999297,106.15556710003875,0.5140440000686795,106.70612690004054,106.69013110001106,107.18920820008498,107.72739650006406,r,1.0203200998948887,None,None,1.064594900002703,,,,,,,,,,,,,,,,,,,,,,,,,,,,,,,,,,,,,,,,Adam,001,2024-02-06_20h25.37.502,M2_experiment1,2023.2.3,58.63451934608615,2024-02-06 20h25.53.196812 +0100,
32,ModifiedT,resources/new_sounds_2/M2city.wav,0.658866213151928,None,None,None,None,r,M,0,16,16,8,,,,,107.74323850008659,,,,,,,,,,,,,,,,,,,,,,,,,,,,,,,,,,,,,,,,,,,,,,,,,107.72918020002544,107.74323850008659,108.23814420006238,0.5098694000625983,108.9269670000067,108.88892250007484,109.3884305000538,110.22644570004195,r,1.3268598999129608,None,None,1.1986882999772206,,,,,,,,,,,,,,,,,,,,,,,,,,,,,,,,,,,,,,,,Adam,001,2024-02-06_20h25.37.502,M2_experiment1,2023.2.3,58.63451934608615,2024-02-06 20h25.53.196812 +0100,
34,ModifiedSH,resources/new_sounds_2/M7mosh.wav,0.486031746031746,None,None,None,None,r,M,0,17,17,10,,,,,110.24206349998713,,,,,,,,,,,,,,,,,,,,,,,,,,,,,,,,,,,,,,,,,,,,,,,,,110.2277991999872,110.24206349998713,110.74062810000032,0.5134808999719098,111.25393620005343,111.22073050006293,111.72114300006069,112.30418029997963,r,1.0810240999562666,None,None,1.0267498000757769,,,,,,,,,,,,,,,,,,,,,,,,,,,,,,,,,,,,,,,,Adam,001,2024-02-06_20h25.37.502,M2_experiment1,2023.2.3,58.63451934608615,2024-02-06 20h25.53.196812 +0100,
36,NotModifiedT,resources/new_sounds_not_modified/F4lot.wav,0.386965569882676,None,None,None,None,e,F,0,18,18,12,,,,,112.32015779998619,,,,,,,,,,,,,,,,,,,,,,,,,,,,,,,,,,,,,,,,,,,,,,,,,112.30502239998896,112.32015779998619,112.82030120003037,0.5157043000217527,113.21891679998953,113.20218720007688,113.70205190009438,114.57002540002577,e,1.3524413000559434,None,None,0.9142854000674561,,,,,,,,,,,,,,,,,,,,,,,,,,,,,,,,,,,,,,,,Adam,001,2024-02-06_20h25.37.502,M2_experiment1,2023.2.3,58.63451934608615,2024-02-06 20h25.53.196812 +0100,
46,NotModifiedT,resources/new_sounds_not_modified/M6pet.wav,0.506976177381986,None,None,None,None,e,M,0,19,19,22,,,,,114.58570990001317,,,,,,,,,,,,,,,,,,,,,,,,,,,,,,,,,,,,,,,,,,,,,,,,,114.57105580007192,114.58570990001317,115.08494590001646,0.5143241999903694,115.60143899999093,115.58480449998751,116.08468000008725,116.7693874000106,e,1.1782127000624314,None,None,1.0308061999967322,,,,,,,,,,,,,,,,,,,,,,,,,,,,,,,,,,,,,,,,Adam,001,2024-02-06_20h25.37.502,M2_experiment1,2023.2.3,58.63451934608615,2024-02-06 20h25.53.196812 +0100,
50,NotModifiedSH,resources/new_sounds_not_modified/M3dish.wav,0.409302075267592,None,None,None,None,e,M,0,20,20,26,,,,,116.78522620000876,,,,,,,,,,,,,,,,,,,,,,,,,,,,,,,,,,,,,,,,,,,,,,,,,116.77022060006857,116.78522620000876,117.28418170008808,0.5143561000004411,117.7174072000198,117.6841490000952,118.1841772000771,118.60504450008739,e,0.9162838000338525,None,None,,,,,,,,,,,,,,,,,,,,,,,,,,,,,,,,,,,,,,,,,Adam,001,2024-02-06_20h25.37.502,M2_experiment1,2023.2.3,58.63451934608615,2024-02-06 20h25.53.196812 +0100,
52,NotModifiedSH,resources/new_sounds_not_modified/M4swoosh.wav,0.736227123531279,None,None,None,None,e,M,0,21,21,28,,,,,118.63114070007578,,,,,,,,,,,,,,,,,,,,,,,,,,,,,,,,,,,,,,,,,,,,,,,,,118.6059720000485,118.63114070007578,119.11686579999514,0.5113461000146344,119.86662890005391,119.84999190003145,120.34989930002484,120.70145679998677,r,0.8499660999514163,None,None,1.2611047000391409,,,,,,,,,,,,,,,,,,,,,,,,,,,,,,,,,,,,,,,,Adam,001,2024-02-06_20h25.37.502,M2_experiment1,2023.2.3,58.63451934608615,2024-02-06 20h25.53.196812 +0100,
53,NotModifiedSH,resources/new_sounds_not_modified/M6fresher.wav,0.558439616650624,None,None,None,None,e,M,0,22,22,29,,,,,120.71703719999641,,,,,,,,,,,,,,,,,,,,,,,,,,,,,,,,,,,,,,,,,,,,,,,,,120.70223980001174,120.71703719999641,121.21624470001552,0.5143771000439301,121.7827395000495,121.76614720001817,122.26587320002727,123.91680020000786,e,2.1394536000443622,None,None,1.0808682000497356,,,,,,,,,,,,,,,,,,,,,,,,,,,,,,,,,,,,,,,,Adam,001,2024-02-06_20h25.37.502,M2_experiment1,2023.2.3,58.63451934608615,2024-02-06 20h25.53.196812 +0100,
30,ModifiedT,resources/new_sounds_2/F3footer.wav,0.597777777777778,None,None,None,None,r,F,0,23,23,6,,,,,123.93253250000998,,,,,,,,,,,,,,,,,,,,,,,,,,,,,,,,,,,,,,,,,,,,,,,,,123.91756990004797,123.93253250000998,124.43349100009073,0.516380500048399,125.03431740007363,125.0175176000921,125.517095600022,126.08292150008492,e,1.0617791999829933,None,None,1.1172235000412911,,,,,,,,,,,,,,,,,,,,,,,,,,,,,,,,,,,,,,,,Adam,001,2024-02-06_20h25.37.502,M2_experiment1,2023.2.3,58.63451934608615,2024-02-06 20h25.53.196812 +0100,
38,ModifiedT,resources/new_sounds_2/M7butter.wav,0.44172335600907,None,None,None,None,r,M,0,24,24,14,,,,,126.09890039998572,,,,,,,,,,,,,,,,,,,,,,,,,,,,,,,,,,,,,,,,,,,,,,,,,126.08374989998993,126.09890039998572,126.59765670006163,0.5143049000762403,127.04752160003409,127.0307610000018,127.53111630002968,127.81567010004073,e,0.7733872000826523,None,None,0.9641605000942945,,,,,,,,,,,,,,,,,,,,,,,,,,,,,,,,,,,,,,,,Adam,001,2024-02-06_20h25.37.502,M2_experiment1,2023.2.3,58.63451934608615,2024-02-06 20h25.53.196812 +0100,
48,ModifiedT,resources/new_sounds_2/M3lottery.wav,0.649773242630385,None,None,None,None,r,M,0,25,25,24,,,,,127.83172660006676,,,,,,,,,,,,,,,,,,,,,,,,,,,,,,,,,,,,,,,,,,,,,,,,,127.81657610007096,127.83172660006676,128.33049790002406,0.5143198999576271,128.98018280009273,128.98018280009273,129.4803552000085,129.96497540001292,e,0.9772137000691146,None,None,1.1644983999431133,,,,,,,,,,,,,,,,,,,,,,,,,,,,,,,,,,,,,,,,Adam,001,2024-02-06_20h25.37.502,M2_experiment1,2023.2.3,58.63451934608615,2024-02-06 20h25.53.196812 +0100,
37,ModifiedT,resources/new_sounds_2/F4lot.wav,0.449274376417234,None,None,None,None,r,F,0,26,26,13,,,,,129.9808359000599,,,,,,,,,,,,,,,,,,,,,,,,,,,,,,,,,,,,,,,,,,,,,,,,,129.9658070000587,129.9808359000599,130.47973180003464,0.5143191999522969,130.92974140006118,130.92974140006118,131.4295271000592,133.48060610005632,e,2.5481192999286577,None,None,0.9648289999458939,,,,,,,,,,,,,,,,,,,,,,,,,,,,,,,,,,,,,,,,Adam,001,2024-02-06_20h25.37.502,M2_experiment1,2023.2.3,58.63451934608615,2024-02-06 20h25.53.196812 +0100,
51,NotModifiedSH,resources/new_sounds_not_modified/M4mosh.wav,0.573267020202984,None,None,None,None,e,M,0,27,27,27,,,,,133.49642530002166,,,,,,,,,,,,,,,,,,,,,,,,,,,,,,,,,,,,,,,,,,,,,,,,,133.4814488000702,133.49642530002166,133.9953419000376,0.5142901999643072,134.57873970002402,134.56185250007547,135.06565410003532,135.6749915999826,r,1.0979318999452516,None,None,1.097701899940148,,,,,,,,,,,,,,,,,,,,,,,,,,,,,,,,,,,,,,,,Adam,001,2024-02-06_20h25.37.502,M2_experiment1,2023.2.3,58.63451934608615,2024-02-06 20h25.53.196812 +0100,
33,ModifiedT,resources/new_sounds_2/M7fatter.wav,0.644739229024943,None,None,None,None,r,M,0,28,28,9,,,,,135.6940768000204,,,,,,,,,,,,,,,,,,,,,,,,,,,,,,,,,,,,,,,,,,,,,,,,,135.67652840004303,135.6940768000204,136.1799343000166,0.5041241999715567,136.82873730000574,136.82873730000574,137.33081790001597,137.98257460002787,e,1.1418875999515876,None,None,1.1536907999543473,,,,,,,,,,,,,,,,,,,,,,,,,,,,,,,,,,,,,,,,Adam,001,2024-02-06_20h25.37.502,M2_experiment1,2023.2.3,58.63451934608615,2024-02-06 20h25.53.196812 +0100,
35,NotModifiedSH,resources/new_sounds_not_modified/M7mosh.wav,0.618134342110551,None,None,None,None,e,M,0,29,29,11,,,,,138.00120870000683,,,,,,,,,,,,,,,,,,,,,,,,,,,,,,,,,,,,,,,,,,,,,,,,,137.9846252000425,138.00120870000683,138.49600739998277,0.5123912000562996,139.14842420001514,139.11450510006398,139.61474760004785,141.01817559998017,e,1.8907962000230327,None,None,1.1315392999676988,,,,,,,,,,,,,,,,,,,,,,,,,,,,,,,,,,,,,,,,Adam,001,2024-02-06_20h25.37.502,M2_experiment1,2023.2.3,58.63451934608615,2024-02-06 20h25.53.196812 +0100,
44,ModifiedSH,resources/new_sounds_2/F2thrasher.wav,0.510249433106576,None,None,None,None,r,F,0,30,30,20,,,,,141.03530540002976,,,,,,,,,,,,,,,,,,,,,,,,,,,,,,,,,,,,,,,,,,,,,,,,,141.02003170002718,141.03530540002976,141.528021599981,0.5087280999869108,142.04481460002717,142.04481460002717,142.54388590005692,142.92001050000545,r,0.8563921999884769,None,None,1.0263755000196397,,,,,,,,,,,,,,,,,,,,,,,,,,,,,,,,,,,,,,,,Adam,001,2024-02-06_20h25.37.502,M2_experiment1,2023.2.3,58.63451934608615,2024-02-06 20h25.53.196812 +0100,
,,,,,,,,,,,,,,,,,,,,,,,,,,,,,,,,,,,,,,,,,,,,,,,,,,,,,,,,,,,,,,,,,,,,,,,,,,,,,,,,142.92137770005502,142.93714829999954,142.93714829999954,153.51097820000723,space,10.560112499981187,None,,,,,,,,,,,,,,,,,,,,,,,,,,,,,,,,,Adam,001,2024-02-06_20h25.37.502,M2_experiment1,2023.2.3,58.63451934608615,2024-02-06 20h25.53.196812 +0100,
,,,,,,,,,,,,,,,,,,,,,,,,,,,,,,,,,,,,,,,,,,,,,,,,,,,,,,,,,,,,,,,,,,,,,,,,,,,,,,,,,,,,,,,153.5110298000509,153.53602460003458,153.53602460003458,161.95688320009504,space,8.409866900066845,None,,,,,,,,,,,,,,,,,,,,,,,,,,Adam,001,2024-02-06_20h25.37.502,M2_experiment1,2023.2.3,58.63451934608615,2024-02-06 20h25.53.196812 +0100,
17,ModifiedT,resources/new_sounds_2/M2bosh.wav,0.387165532879819,resources/new_sounds_not_modified/M6bot.wav,0.501070841911371,resources/new_sounds_not_modified/M5bosh.wav,0.597358038485993,2,M,,,,,0,0,0,16,162.0156325000571,,,,,,,,,,,,,,,,,,,,,,,,,,,,,,,,,,,,,,,,,,,,,,,,,,,,,,,,,,,,,,,,,,,,,,,,,,,,161.9996044000145,162.0156325000571,162.47229110007174,0.5155357000185177,162.86749560001772,0.9107339000329375,163.35651750001125,163.35258722003783,163.8737506000325,163.8737506000325,164.3555046999827,164.35214582005284,164.9668832999887,164.9668832999887,164.9668832999887,165.4563159000827,170.30647429998498,t,5.3331636999500915,None,None,0,,,,Adam,001,2024-02-06_20h25.37.502,M2_experiment1,2023.2.3,58.63451934608615,2024-02-06 20h25.53.196812 +0100,
9,ModifiedSH,resources/new_sounds_not_modified/M4bot.wav,0.453615769026229,resources/new_sounds_not_modified/M3bosh.wav,0.524217377306996,resources/new_sounds_2/M2bosh.wav,0.387165532879819,2,M,,,,,0,1,1,8,170.32471160008572,,,,,,,,,,,,,,,,,,,,,,,,,,,,,,,,,,,,,,,,,,,,,,,,,,,,,,,,,,,,,,,,,,,,,,,,,,,,170.30886200000532,170.32471160008572,170.81643330003135,0.5083367999177426,171.28294410009403,0.9748442999552935,171.76678270008415,171.76630222006935,172.30293760006316,172.30293760006316,172.7992077000672,172.79895242002095,173.20578530000057,173.20578530000057,173.182320300024,173.68287050002255,177.50488940009382,t,4.316072299960069,None,None,0,,,,Adam,001,2024-02-06_20h25.37.502,M2_experiment1,2023.2.3,58.63451934608615,2024-02-06 20h25.53.196812 +0100,
2,ModifiedSh,resources/new_sounds_not_modified/F2fish.wav,0.528250066930233,resources/new_sounds_2/F1fit.wav,0.423218058079413,resources/new_sounds_not_modified/F5fit.wav,0.2975247836995,3,F,,,,,0,2,2,1,177.52191660006065,,,,,,,,,,,,,,,,,,,,,,,,,,,,,,,,,,,,,,,,,,,,,,,,,,,,,,,,,,,,,,,,,,,,,,,,,,,,177.5061308000004,177.52191660006065,178.01389380008914,0.5082663000794128,178.54704490001313,1.041409800061956,179.04685709998012,179.04679482000648,179.49907810008153,179.49907810008153,179.96382160007488,179.96350982006408,180.2803561000619,180.2803561000619,180.2803561000619,180.76902220002376,182.3924071000656,r,2.092335799941793,None,None,0,,,,Adam,001,2024-02-06_20h25.37.502,M2_experiment1,2023.2.3,58.63451934608615,2024-02-06 20h25.53.196812 +0100,
12,ModifiedSH,resources/new_sounds_not_modified/F4bot.wav,0.390471530438234,resources/new_sounds_not_modified/F3bosh.wav,0.505513996768869,resources/new_sounds_2/F2bosh.wav,0.423673469387755,2,F,,,,,0,3,3,11,182.41501990007237,,,,,,,,,,,,,,,,,,,,,,,,,,,,,,,,,,,,,,,,,,,,,,,,,,,,,,,,,,,,,,,,,,,,,,,,,,,,182.39440310001373,182.41501990007237,182.90031310007907,0.5069292999105528,183.2996267999988,0.9061842999653891,183.80228740000166,183.80000281998656,184.3259701000061,184.3259701000061,184.79814780002926,184.7937312200782,185.23348589998204,185.23348589998204,185.2136345000472,185.73380869999528,187.5794395999983,e,2.3542028999654576,None,None,0,,,,Adam,001,2024-02-06_20h25.37.502,M2_experiment1,2023.2.3,58.63451934608615,2024-02-06 20h25.53.196812 +0100,
8,ModifiedSH,resources/new_sounds_not_modified/M3bot.wav,0.368685295497059,resources/new_sounds_not_modified/M1bosh.wav,0.5055628425466665,resources/new_sounds_2/M5bosh.wav,0.4857823129251701,2,M,,,,,0,4,4,7,187.59713090001605,,,,,,,,,,,,,,,,,,,,,,,,,,,,,,,,,,,,,,,,,,,,,,,,,,,,,,,,,,,,,,,,,,,,,,,,,,,,187.580309699988,187.59713090001605,188.09354000003077,0.5136295999400318,188.47705440002028,0.897160799941048,188.96028390002903,188.96016072005733,189.4834554999834,189.4834554999834,189.9599083000794,189.95970082004789,190.46379559999332,190.46379559999332,190.44324570009485,190.9432911000913,192.1453103000531,e,1.6947309999959543,None,None,0,,,,Adam,001,2024-02-06_20h25.37.502,M2_experiment1,2023.2.3,58.63451934608615,2024-02-06 20h25.53.196812 +0100,
1,ModifiedT,resources/new_sounds_not_modified/F2fit.wav,0.374261916532496,resources/new_sounds_not_modified/F5fish.wav,0.478583202882902,resources/new_sounds_2/F4fit.wav,0.41736473916697,1,F,,,,,0,5,5,0,192.16228490008507,,,,,,,,,,,,,,,,,,,,,,,,,,,,,,,,,,,,,,,,,,,,,,,,,,,,,,,,,,,,,,,,,,,,,,,,,,,,192.14624500006903,192.16228490008507,192.65877600002568,0.5129388999193907,193.04198049998377,0.8961409999756142,193.5250331000425,193.52526972001652,194.0266144000925,194.0266144000925,194.50797969999257,194.50812122005738,194.92488230008166,,194.92488230008166,195.4249130000826,199.34241799998563,e,4.412923300056718,None,None,0,,,,Adam,001,2024-02-06_20h25.37.502,M2_experiment1,2023.2.3,58.63451934608615,2024-02-06 20h25.53.196812 +0100,
10,ModifiedT,resources/new_sounds_not_modified/M2fit.wav,0.423218058079414,resources/new_sounds_not_modified/M5fish.wav,0.451129071842058,resources/new_sounds_2/M4fit.wav,0.597210884353741,1,M,,,,,0,6,6,9,199.35975050006527,,,,,,,,,,,,,,,,,,,,,,,,,,,,,,,,,,,,,,,,,,,,,,,,,,,,,,,,,,,,,,,,,,,,,,,,,,,,199.3432235000655,199.35975050006527,199.85853710002266,0.5157458999892697,200.28940310003236,0.9465520000085235,200.7725273000542,200.77257012006595,201.25573420000728,,201.72473910008557,201.72315292003333,202.35418850008864,202.3323922000127,202.3323922000127,202.82535400008783,203.5821966000367,t,1.2426092999521643,None,None,0,,,,Adam,001,2024-02-06_20h25.37.502,M2_experiment1,2023.2.3,58.63451934608615,2024-02-06 20h25.53.196812 +0100,
16,ModifiedT,resources/new_sounds_2/M2fit.wav,0.646553287981859,resources/new_sounds_not_modified/M4fit.wav,0.508424667314028,resources/new_sounds_not_modified/M5fish.wav,0.451129071842058,2,M,,,,,0,7,7,15,203.6028088000603,,,,,,,,,,,,,,,,,,,,,,,,,,,,,,,,,,,,,,,,,,,,,,,,,,,,,,,,,,,,,,,,,,,,,,,,,,,,203.58412120002322,203.6028088000603,204.0897628000239,0.5063804000383243,204.742047799984,1.1586748999543488,205.23995379998814,205.23827262002743,205.7607453999808,205.7607453999808,206.25410590006504,206.2539802200743,206.7220278000459,206.7220278000459,206.7040458000265,207.20403510006145,207.97251900006086,r,1.256781499949284,None,None,0,,,,Adam,001,2024-02-06_20h25.37.502,M2_experiment1,2023.2.3,58.63451934608615,2024-02-06 20h25.53.196812 +0100,
6,ModifiedT,resources/new_sounds_not_modified/M1met.wav,0.532038259057699,resources/new_sounds_2/M3met.wav,0.558503401360544,resources/new_sounds_not_modified/M5mesh.wav,0.5032130872900709,1,M,,,,,0,8,8,5,207.99015140009578,,,,,,,,,,,,,,,,,,,,,,,,,,,,,,,,,,,,,,,,,,,,,,,,,,,,,,,,,,,,,,,,,,,,,,,,,,,,207.97336420009378,207.99015140009578,208.48689539998304,0.5139364000642672,209.0200724999886,1.047111100051552,209.52368079998996,209.52047672007467,210.09809049998876,210.09809049998876,210.58511330001056,210.5711562200566,211.09403879998717,211.09403879998717,211.07308100000955,211.57045700005256,213.38494870008435,r,2.2851688999217004,None,None,0,,,,Adam,001,2024-02-06_20h25.37.502,M2_experiment1,2023.2.3,58.63451934608615,2024-02-06 20h25.53.196812 +0100,
11,ModifiedSH,resources/new_sounds_not_modified/M1fish.wav,0.569506825661794,resources/new_sounds_2/M7fit.wav,0.485691609977324,resources/new_sounds_not_modified/M3fit.wav,0.479334255844424,3,M,,,,,0,9,9,10,213.40525050007273,,,,,,,,,,,,,,,,,,,,,,,,,,,,,,,,,,,,,,,,,,,,,,,,,,,,,,,,,,,,,,,,,,,,,,,,,,,,213.38606130005792,213.40525050007273,213.88553030008916,0.4999921000562608,214.48864870006219,,214.97141320002265,214.96876662004507,215.4752324000001,215.4752324000001,215.95165180007461,215.951156320062,216.44865929998923,216.44865929998923,216.44865929998923,216.93541100004222,218.26995850005187,r,1.8183125999057665,None,None,0,,,,Adam,001,2024-02-06_20h25.37.502,M2_experiment1,2023.2.3,58.63451934608615,2024-02-06 20h25.53.196812 +0100,
3,ModifiedT,resources/new_sounds_2/F5mat.wav,0.565396825396825,resources/new_sounds_not_modified/F4mash.wav,0.38066522534541036,resources/new_sounds_not_modified/F2mat.wav,0.5007174554648515,3,F,,,,,0,10,10,2,218.287781800027,,,,,,,,,,,,,,,,,,,,,,,,,,,,,,,,,,,,,,,,,,,,,,,,,,,,,,,,,,,,,,,,,,,,,,,,,,,,218.27112620009575,218.287781800027,218.78367730008904,0.5131204000208527,219.349907200085,1.0793410999467596,219.85037660005037,219.84980892007007,220.24936050001998,220.24936050001998,220.7168023000704,220.71610442003004,221.22954259999096,221.22954259999096,221.22954259999096,221.7336746000219,222.83383910008706,r,1.5911387999076396,None,None,0,,,,Adam,001,2024-02-06_20h25.37.502,M2_experiment1,2023.2.3,58.63451934608615,2024-02-06 20h25.53.196812 +0100,
22,ModifiedSH,resources/new_sounds_not_modified/F1mash.wav,0.601753675244161,resources/new_sounds_2/F3mash.wav,0.42437641723356,resources/new_sounds_not_modified/F4mat.wav,0.401181209050264,3,F,,,,,0,11,11,21,222.85129610006697,,,,,,,,,,,,,,,,,,,,,,,,,,,,,,,,,,,,,,,,,,,,,,,,,,,,,,,,,,,,,,,,,,,,,,,,,,,,222.83465910004452,222.85129610006697,223.3501134000253,0.5158993999939412,223.95137480006088,1.1171466000378132,224.45011880004313,224.44843602007023,224.89852440007962,224.89852440007962,225.3677667999873,225.3649252200383,225.79882440005895,225.78236110007856,225.78236110007856,226.26716530008707,226.84092390001751,r,1.040653400006704,None,None,0,,,,Adam,001,2024-02-06_20h25.37.502,M2_experiment1,2023.2.3,58.63451934608615,2024-02-06 20h25.53.196812 +0100,
20,ModifiedSH,resources/new_sounds_2/F2push.wav,0.418027210884354,resources/new_sounds_not_modified/F4push.wav,0.436144678520506,resources/new_sounds_not_modified/F3put.wav,0.437781204290985,2,F,,,,,0,12,12,19,226.8601152000483,,,,,,,,,,,,,,,,,,,,,,,,,,,,,,,,,,,,,,,,,,,,,,,,,,,,,,,,,,,,,,,,,,,,,,,,,,,,226.84264669998083,226.8601152000483,227.34937720000744,0.507503499975428,227.78119090001564,0.9393490999937057,228.26359980006237,228.26322862006492,228.70939400000498,228.70939400000498,229.19833660009317,229.19682982006344,229.64752750005573,229.64752750005573,229.64752750005573,230.1492424000753,231.33617170003708,t,1.6790262999711558,None,None,0,,,,Adam,001,2024-02-06_20h25.37.502,M2_experiment1,2023.2.3,58.63451934608615,2024-02-06 20h25.53.196812 +0100,
15,ModifiedSH,resources/new_sounds_not_modified/M2fish.wav,0.602031419699607,resources/new_sounds_not_modified/M5fit.wav,0.593107043618346,resources/new_sounds_2/M1fish.wav,0.512562358276644,1,M,,,,,0,13,13,14,231.35701380006503,,,,,,,,,,,,,,,,,,,,,,,,,,,,,,,,,,,,,,,,,,,,,,,,,,,,,,,,,,,,,,,,,,,,,,,,,,,,231.33804320008494,231.35701380006503,231.84698170004413,0.5099670001072809,232.47968960006256,1.1111721000634134,232.94709470006637,232.9455738200457,233.5528322000755,233.5528322000755,234.04704030009452,234.04542992009084,234.57228060008492,234.57228060008492,234.54856460005976,235.04773670004215,235.76335820008535,r,1.2013315999647602,None,None,0,,,,Adam,001,2024-02-06_20h25.37.502,M2_experiment1,2023.2.3,58.63451934608615,2024-02-06 20h25.53.196812 +0100,
13,ModifiedT,resources/new_sounds_not_modified/F1fish.wav,0.519196656146427,resources/new_sounds_not_modified/F4fit.wav,0.297524783699501,resources/new_sounds_2/F2fit.wav,0.443741496598639,2,F,,,,,0,14,14,12,235.78065329999663,,,,,,,,,,,,,,,,,,,,,,,,,,,,,,,,,,,,,,,,,,,,,,,,,,,,,,,,,,,,,,,,,,,,,,,,,,,,235.76432200009003,235.78065329999663,236.2779015999986,0.5140418999362737,236.81077990005724,1.046926600043662,237.29389650002122,237.2937762200716,237.60685390001163,237.60685390001163,238.09365930000786,238.09347282001983,238.55288970004767,238.55288970004767,238.52675810002256,239.0291479000589,240.24285210005473,t,1.706061300006695,None,None,0,,,,Adam,001,2024-02-06_20h25.37.502,M2_experiment1,2023.2.3,58.63451934608615,2024-02-06 20h25.53.196812 +0100,
18,ModifiedT,resources/new_sounds_2/M2put.wav,0.532199546485261,resources/new_sounds_not_modified/M7put.wav,0.410382098763918,resources/new_sounds_not_modified/M5push.wav,0.499025816019625,2,M,,,,,0,15,15,17,240.26239520008676,,,,,,,,,,,,,,,,,,,,,,,,,,,,,,,,,,,,,,,,,,,,,,,,,,,,,,,,,,,,,,,,,,,,,,,,,,,,240.2438378999941,240.26239520008676,240.74271570006385,0.49936790007632226,241.27649080008268,1.0331694000633433,241.77577469998505,241.7755766200251,242.19793820008636,242.19793820008636,242.69170780002605,242.6920947199804,243.20710960007273,243.20710960007273,243.20710960007273,243.6933581000194,244.8271196000278,r,1.6171222000848502,None,None,0,,,,Adam,001,2024-02-06_20h25.37.502,M2_experiment1,2023.2.3,58.63451934608615,2024-02-06 20h25.53.196812 +0100,
7,ModifiedSH,resources/new_sounds_2/M1bosh.wav,0.4574829931972789,resources/new_sounds_not_modified/M2bot.wav,0.415863975908209,resources/new_sounds_not_modified/M4bosh.wav,0.4533657452807347,3,M,,,,,0,16,16,6,244.8449389000889,,,,,,,,,,,,,,,,,,,,,,,,,,,,,,,,,,,,,,,,,,,,,,,,,,,,,,,,,,,,,,,,,,,,,,,,,,,,244.82810340006836,244.8449389000889,245.34130880003795,0.5136748999357224,245.80750680004712,0.9798655000049621,246.29161539999768,246.29145282007522,246.72468820004724,246.72468820004724,247.20675320003647,247.20677962003975,247.68139160005376,247.68139160005376,247.65672820003238,248.15658930002246,249.29162760009058,r,1.620222800062038,None,None,0,,,,Adam,001,2024-02-06_20h25.37.502,M2_experiment1,2023.2.3,58.63451934608615,2024-02-06 20h25.53.196812 +0100,
4,ModifiedT,resources/new_sounds_not_modified/M4mat.wav,0.4451593985921889,resources/new_sounds_2/M3mat.wav,0.494308390022676,resources/new_sounds_not_modified/M2mash.wav,0.7358947371573947,1,M,,,,,0,17,17,3,249.30888860009145,,,,,,,,,,,,,,,,,,,,,,,,,,,,,,,,,,,,,,,,,,,,,,,,,,,,,,,,,,,,,,,,,,,,,,,,,,,,249.29240490007214,249.30888860009145,249.80611250002403,0.5140883999411017,250.25602710002568,0.9639948999974877,250.73897150007542,250.73905442004326,251.24437910004053,251.24437910004053,251.73869840009138,251.73885282002158,252.50531510007568,,252.48629899998195,252.9750821000198,253.57865060004406,r,1.0821776000084355,None,None,0,,,,Adam,001,2024-02-06_20h25.37.502,M2_experiment1,2023.2.3,58.63451934608615,2024-02-06 20h25.53.196812 +0100,
5,ModifiedT,resources/new_sounds_not_modified/F4met.wav,0.44494520825283956,resources/new_sounds_2/F2met.wav,0.634104308390023,resources/new_sounds_not_modified/F1mesh.wav,0.5571319490698841,1,F,,,,,0,18,18,4,253.59988640004303,,,,,,,,,,,,,,,,,,,,,,,,,,,,,,,,,,,,,,,,,,,,,,,,,,,,,,,,,,,,,,,,,,,,,,,,,,,,253.58127170009539,253.59988640004303,254.08990880008787,0.5098691999446601,254.54285239998717,0.9628290999680758,255.03954390005674,255.03812042007922,255.70500549999997,255.687270800001,256.1726386999944,256.1711164200795,256.747119900072,256.747119900072,256.7212396999821,257.2186760000186,257.85719360003714,t,1.1320684000384063,None,None,0,,,,Adam,001,2024-02-06_20h25.37.502,M2_experiment1,2023.2.3,58.63451934608615,2024-02-06 20h25.53.196812 +0100,
14,ModifiedSH,resources/new_sounds_not_modified/F2bosh.wav,0.494392229081527,resources/new_sounds_not_modified/F5bot.wav,0.485673207115724,resources/new_sounds_2/F1bosh.wav,0.520634920634921,1,F,,,,,0,19,19,13,257.8763545000693,,,,,,,,,,,,,,,,,,,,,,,,,,,,,,,,,,,,,,,,,,,,,,,,,,,,,,,,,,,,,,,,,,,,,,,,,,,,257.8586301000323,257.8763545000693,258.3687757999869,0.510819899966009,258.8685603000922,1.0105979000218213,259.3523780000396,259.3518338200054,259.8514357000822,259.8514357000822,260.3518672999926,260.35167212005473,260.8865845000837,260.8865845000837,260.8686674000928,261.3703704000218,261.80149760004133,r,0.9131036000326276,None,None,0,,,,Adam,001,2024-02-06_20h25.37.502,M2_experiment1,2023.2.3,58.63451934608615,2024-02-06 20h25.53.196812 +0100,
19,ModifiedT,resources/new_sounds_2/F2put.wav,0.521360544217687,resources/new_sounds_not_modified/F4push.wav,0.436144678520506,resources/new_sounds_not_modified/F5put.wav,0.363522850118329,2,F,,,,,0,20,20,18,261.8197787000099,,,,,,,,,,,,,,,,,,,,,,,,,,,,,,,,,,,,,,,,,,,,,,,,,,,,,,,,,,,,,,,,,,,,,,,,,,,,261.80242820002604,261.8197787000099,262.30198059999384,0.5000058000441641,262.83509519998915,1.0331132999854162,263.33491510001477,263.33492552001263,263.78679849999025,263.78679849999025,264.2684001000598,264.26815982001136,264.64269620005507,264.64269620005507,264.64269620005507,265.1357913999818,265.98715619998984,r,1.3348542000167072,None,None,0,,,,Adam,001,2024-02-06_20h25.37.502,M2_experiment1,2023.2.3,58.63451934608615,2024-02-06 20h25.53.196812 +0100,
21,ModifiedSH,resources/new_sounds_not_modified/F5fish.wav,0.478583202882902,resources/new_sounds_2/F4fish.wav,0.366258503401361,resources/new_sounds_not_modified/F2fit.wav,0.374261916532497,3,F,,,,,0,21,21,20,266.00590039999224,,,,,,,,,,,,,,,,,,,,,,,,,,,,,,,,,,,,,,,,,,,,,,,,,,,,,,,,,,,,,,,,,,,,,,,,,,,,265.9883359000087,266.00590039999224,266.5006316000363,0.5127910000737756,266.9839895000914,0.9961588999722153,267.4667963000247,267.46667022003095,267.84489090007264,267.84489090007264,268.33365520008374,268.3334961200715,268.7218715000199,268.7218715000199,268.7218715000199,269.2166392999934,269.77229120000266,t,1.038139299955219,None,None,0,,,,Adam,001,2024-02-06_20h25.37.502,M2_experiment1,2023.2.3,58.63451934608615,2024-02-06 20h25.53.196812 +0100,
,,,,,,,,,,,,,,,,,,,,,,,,,,,,,,,,,,,,,,,,,,,,,,,,,,,,,,,,,,,,,,,,,,,,,,,,,,,,,,,,,,,,,,,,,,,,,,,,,,,,,,,,,,,,,,,,,,,,269.77296179998666,269.7864083000459,272.7816953000147,,,,,,,,
