ItemNb,Condition,Sound1,DurationSound1,Sound2,DurationSound2,Sound3,DurationSound3,ExpectedKey,Condition2,trials_task3.thisRepN,trials_task3.thisTrialN,trials_task3.thisN,trials_task3.thisIndex,trials_task1.thisRepN,trials_task1.thisTrialN,trials_task1.thisN,trials_task1.thisIndex,thisRow.t,notes,Welcome.started,textWelcomeMessage.started,keyWelcome.started,Welcome.stopped,keyWelcome.keys,keyWelcome.rt,keyWelcome.duration,Welcome_2.started,textWelcome2.started,key_resp_5.started,Welcome_2.stopped,key_resp_5.keys,key_resp_5.rt,key_resp_5.duration,Welcome_3.started,textWelcome3.started,key_resp_6.started,Welcome_3.stopped,key_resp_6.keys,key_resp_6.rt,key_resp_6.duration,blank.started,blank1.started,blank1.stopped,blank.stopped,volume_explanation.started,text_volume.started,key_resp_8.started,volume_explanation.stopped,key_resp_8.keys,key_resp_8.rt,key_resp_8.duration,volume.started,text_2.started,key_resp_7.started,sound_testvolume.started,volume.stopped,key_resp_7.keys,key_resp_7.rt,key_resp_7.duration,explanation.started,text.started,key_info_oddity.started,explanation.stopped,key_info_oddity.keys,key_info_oddity.rt,key_info_oddity.duration,task3.started,key_replay3.started,text_recording1_3.started,sound1_3.started,key_resp_question3.started,text_recording1_3.stopped,sound1_3.stopped,text_questiontask3.started,task3.stopped,key_resp_question3.keys,key_resp_question3.rt,key_resp_question3.duration,key_replay3.keys,explanation_3.started,text_4.started,key_resp_3.started,explanation_3.stopped,key_resp_3.keys,key_resp_3.rt,key_resp_3.duration,explanation_1.started,text_explanation_1.started,key_resp.started,explanation_1.stopped,key_resp.keys,key_resp.rt,key_resp.duration,task1.started,key_replay1.started,text_recording1.started,sound1.started,text_recording1.stopped,sound1.stopped,text_recording2.started,sound2.started,text_recording2.stopped,sound2.stopped,text_recording3.started,sound3.started,text_recording3.stopped,sound3.stopped,key_resp_question1.started,text_question1.started,task1.stopped,key_resp_question1.keys,key_resp_question1.rt,key_resp_question1.duration,key_replay1.keys,key_replay1.rt,key_replay1.duration,replay_count,Bye.started,text_6.started,Bye.stopped,participant,session,date,expName,psychopyVersion,frameRate,expStart,
,,,,,,,,,,,,,,,,,,,,0.00977270002476871,0.02545870002359152,0.02545870002359152,8.389419300016016,space,8.3513638000004,None,,,,,,,,,,,,,,,,,,,,,,,,,,,,,,,,,,,,,,,,,,,,,,,,,,,,,,,,,,,,,,,,,,,,,,,,,,,,,,,,,,,,,,,,,,,,,,,Aidan,001,2024-02-04_20h37.49.913,M2_experiment1,2023.2.3,60.01972244930594,2024-02-04 20h38.06.459800 +0100,
,,,,,,,,,,,,,,,,,,,,,,,,,,,8.38946970005054,8.405075300019234,8.405075300019234,15.205801400006749,space,6.794992399984039,None,,,,,,,,,,,,,,,,,,,,,,,,,,,,,,,,,,,,,,,,,,,,,,,,,,,,,,,,,,,,,,,,,,,,,,,,,,,,,,,,,,,,,,,,Aidan,001,2024-02-04_20h37.49.913,M2_experiment1,2023.2.3,60.01972244930594,2024-02-04 20h38.06.459800 +0100,
,,,,,,,,,,,,,,,,,,,,,,,,,,,,,,,,,,15.205846199998632,15.223550499998964,15.223550499998964,33.73216540005524,space,18.505824799998663,None,,,,,,,,,,,,,,,,,,,,,,,,,,,,,,,,,,,,,,,,,,,,,,,,,,,,,,,,,,,,,,,,,,,,,,,,,,,,,,,,,Aidan,001,2024-02-04_20h37.49.913,M2_experiment1,2023.2.3,60.01972244930594,2024-02-04 20h38.06.459800 +0100,
,,,,,,,,,,,,,,,,,,,,,,,,,,,,,,,,,,,,,,,,,33.73220670002047,33.74753619998228,34.74717910005711,34.73121530003846,34.73123479995411,34.74717910005711,34.74717910005711,43.961796800023876,space,9.202751600067131,None,,,,,,,,,,,,,,,,,,,,,,,,,,,,,,,,,,,,,,,,,,,,,,,,,,,,,,,,,,,,,,,,,,,,,,Aidan,001,2024-02-04_20h37.49.913,M2_experiment1,2023.2.3,60.01972244930594,2024-02-04 20h38.06.459800 +0100,
,,,,,,,,,,,,,,,,,,,,,,,,,,,,,,,,,,,,,,,,,,,,,,,,,,,,43.96183679997921,43.987982299993746,44.97718489996623,44.977100999944376,54.2585804000264,space,9.27864919998683,None,,,,,,,,,,,,,,,,,,,,,,,,,,,,,,,,,,,,,,,,,,,,,,,,,,,,,,,,,,,,,,Aidan,001,2024-02-04_20h37.49.913,M2_experiment1,2023.2.3,60.01972244930594,2024-02-04 20h38.06.459800 +0100,
,,,,,,,,,,,,,,,,,,,,,,,,,,,,,,,,,,,,,,,,,,,,,,,,,,,,,,,,,,,,54.279386000009254,54.29187750001438,54.29187750001438,65.78784620005172,space,11.488538899924606,None,,,,,,,,,,,,,,,,,,,,,,,,,,,,,,,,,,,,,,,,,,,,,,,,,,,,,,,Aidan,001,2024-02-04_20h37.49.913,M2_experiment1,2023.2.3,60.01972244930594,2024-02-04 20h38.06.459800 +0100,
51,NotModifiedSH,resources/new_sounds_not_modified/M4mosh.wav,0.573267020202984,None,None,None,None,e,M,0,0,0,27,,,,,65.83810369996354,,,,,,,,,,,,,,,,,,,,,,,,,,,,,,,,,,,,,,,,,,,,,,,,,65.82475779997185,65.83810369996354,66.3031736999983,0.5153854000382125,66.86962000001222,66.8863612000132,1.098571200040169,67.36948650004342,71.11984830000438,e,4.241283299983479,None,None,,,,,,,,,,,,,,,,,,,,,,,,,,,,,,,,,,,,,,,,,,Aidan,001,2024-02-04_20h37.49.913,M2_experiment1,2023.2.3,60.01972244930594,2024-02-04 20h38.06.459800 +0100,
40,ModifiedSH,resources/new_sounds_2/F5fresher.wav,0.567437641723356,None,None,None,None,r,F,0,1,1,16,,,,,71.13824230001774,,,,,,,,,,,,,,,,,,,,,,,,,,,,,,,,,,,,,,,,,,,,,,,,,71.12278239999432,71.13824230001774,71.63484720000997,0.5124512000475079,72.20448489999399,72.20448489999399,,72.70110499998555,72.93601689999923,r,0.7236567999934778,None,None,,,,,,,,,,,,,,,,,,,,,,,,,,,,,,,,,,,,,,,,,,Aidan,001,2024-02-04_20h37.49.913,M2_experiment1,2023.2.3,60.01972244930594,2024-02-04 20h38.06.459800 +0100,
33,ModifiedT,resources/new_sounds_2/M7fatter.wav,0.644739229024943,None,None,None,None,r,M,0,2,2,9,,,,,72.95325609995052,,,,,,,,,,,,,,,,,,,,,,,,,,,,,,,,,,,,,,,,,,,,,,,,,72.93678740004543,72.95325609995052,73.45072570000775,0.5143032000632957,74.0838615000248,74.10055049997754,1.1641217999858782,74.58379629999399,75.0517559000291,e,0.9571932000108063,None,None,,,,,,,,,,,,,,,,,,,,,,,,,,,,,,,,,,,,,,,,,,Aidan,001,2024-02-04_20h37.49.913,M2_experiment1,2023.2.3,60.01972244930594,2024-02-04 20h38.06.459800 +0100,
45,NotModifiedSH,resources/new_sounds_not_modified/F3mosh.wav,0.628649263052651,None,None,None,None,e,F,0,3,3,21,,,,,75.06919539999217,,,,,,,,,,,,,,,,,,,,,,,,,,,,,,,,,,,,,,,,,,,,,,,,,75.05255050002597,75.06919539999217,75.56678969995119,0.5146135999821126,76.18316200003028,76.19987090001814,1.1476906000170857,76.68301170004997,77.05107529996894,r,0.8510795999318361,None,None,,,,,,,,,,,,,,,,,,,,,,,,,,,,,,,,,,,,,,,,,,Aidan,001,2024-02-04_20h37.49.913,M2_experiment1,2023.2.3,60.01972244930594,2024-02-04 20h38.06.459800 +0100,
29,NotModifiedT,resources/new_sounds_2/M4getting.wav,0.612123590008089,None,None,None,None,e,M,0,4,4,5,,,,,77.06819859996904,,,,,,,,,,,,,,,,,,,,,,,,,,,,,,,,,,,,,,,,,,,,,,,,,77.05185960000381,77.06819859996904,77.56603610003367,0.5145394999999553,78.16586119995918,78.18245349999052,1.1309748999774456,78.66571400000248,78.917071999982,e,0.7384975000750273,None,None,,,,,,,,,,,,,,,,,,,,,,,,,,,,,,,,,,,,,,,,,,Aidan,001,2024-02-04_20h37.49.913,M2_experiment1,2023.2.3,60.01972244930594,2024-02-04 20h38.06.459800 +0100,
48,ModifiedT,resources/new_sounds_2/M3lottery.wav,0.649773242630385,None,None,None,None,r,M,0,5,5,24,,,,,78.93577450001612,,,,,,,,,,,,,,,,,,,,,,,,,,,,,,,,,,,,,,,,,,,,,,,,,78.91790110000875,78.93577450001612,79.43216279998887,0.5146317000035197,80.08210720005445,80.08210720005445,1.1650691999820992,,80.54984059999697,e,0.46028140000998974,None,None,,,,,,,,,,,,,,,,,,,,,,,,,,,,,,,,,,,,,,,,,,Aidan,001,2024-02-04_20h37.49.913,M2_experiment1,2023.2.3,60.01972244930594,2024-02-04 20h38.06.459800 +0100,
41,ModifiedT,resources/new_sounds_2/F4utter.wav,0.53952380952381,None,None,None,None,r,F,0,6,6,17,,,,,80.56836859998293,,,,,,,,,,,,,,,,,,,,,,,,,,,,,,,,,,,,,,,,,,,,,,,,,80.55062520003412,80.56836859998293,81.06499079999048,0.5147492000833154,81.59800300002098,81.61456819996238,1.0643048000056297,82.09792019997258,82.86583080003038,e,1.260431700036861,None,None,,,,,,,,,,,,,,,,,,,,,,,,,,,,,,,,,,,,,,,,,,Aidan,001,2024-02-04_20h37.49.913,M2_experiment1,2023.2.3,60.01972244930594,2024-02-04 20h38.06.459800 +0100,
43,NotModifiedT,resources/new_sounds_not_modified/F2feat.wav,0.644364234737267,None,None,None,None,e,F,0,7,7,19,,,,,82.88321340002585,,,,,,,,,,,,,,,,,,,,,,,,,,,,,,,,,,,,,,,,,,,,,,,,,82.8666090000188,82.88321340002585,83.38086190004833,0.5146243999479339,84.01387250004336,84.03046060004272,1.1642244999529794,84.51373150001746,84.79856520006433,e,0.7830282000359148,None,None,,,,,,,,,,,,,,,,,,,,,,,,,,,,,,,,,,,,,,,,,,Aidan,001,2024-02-04_20h37.49.913,M2_experiment1,2023.2.3,60.01972244930594,2024-02-04 20h38.06.459800 +0100,
31,NotModifiedT,resources/new_sounds_not_modified/F3footer.wav,0.573733808005514,None,None,None,None,e,F,0,8,8,7,,,,,84.81691050005611,,,,,,,,,,,,,,,,,,,,,,,,,,,,,,,,,,,,,,,,,,,,,,,,,84.79935870005284,84.81691050005611,85.31343590002507,0.5144404000602663,85.8799898000434,85.8964910999639,1.0974906000774354,86.37975570000708,87.16424970002845,r,1.2710187999764457,None,None,,,,,,,,,,,,,,,,,,,,,,,,,,,,,,,,,,,,,,,,,,Aidan,001,2024-02-04_20h37.49.913,M2_experiment1,2023.2.3,60.01972244930594,2024-02-04 20h38.06.459800 +0100,
46,NotModifiedT,resources/new_sounds_not_modified/M6pet.wav,0.506976177381986,None,None,None,None,e,M,0,9,9,22,,,,,87.1828590000514,,,,,,,,,,,,,,,,,,,,,,,,,,,,,,,,,,,,,,,,,,,,,,,,,87.1650260000024,87.1828590000514,87.67935870005749,0.514701799955219,88.17914739996195,88.19572690001223,1.0310670000035316,88.67897510004696,88.91376949998084,e,0.7317009998951107,None,None,,,,,,,,,,,,,,,,,,,,,,,,,,,,,,,,,,,,,,,,,,Aidan,001,2024-02-04_20h37.49.913,M2_experiment1,2023.2.3,60.01972244930594,2024-02-04 20h38.06.459800 +0100,
44,ModifiedSH,resources/new_sounds_2/F2thrasher.wav,0.510249433106576,None,None,None,None,r,F,0,10,10,20,,,,,88.9311642999528,,,,,,,,,,,,,,,,,,,,,,,,,,,,,,,,,,,,,,,,,,,,,,,,,88.91453189996537,88.9311642999528,89.42867880000267,0.5145060999784619,89.92852369998582,89.9452772999648,1.0311033999314532,90.42835840000771,92.46273030003067,e,2.5309659000486135,None,None,,,,,,,,,,,,,,,,,,,,,,,,,,,,,,,,,,,,,,,,,,Aidan,001,2024-02-04_20h37.49.913,M2_experiment1,2023.2.3,60.01972244930594,2024-02-04 20h38.06.459800 +0100,
49,NotModifiedT,resources/new_sounds_not_modified/M2lot.wav,0.466575772426751,None,None,None,None,e,M,0,11,11,25,,,,,92.48092979996,,,,,,,,,,,,,,,,,,,,,,,,,,,,,,,,,,,,,,,,,,,,,,,,,92.4635147000663,92.48092979996,92.97761970001739,0.5144874000689015,93.44406630005687,93.44406630005687,0.9813574000727385,93.94392109999899,95.86173600004986,r,2.4159299000166357,None,None,,,,,,,,,,,,,,,,,,,,,,,,,,,,,,,,,,,,,,,,,,Aidan,001,2024-02-04_20h37.49.913,M2_experiment1,2023.2.3,60.01972244930594,2024-02-04 20h38.06.459800 +0100,
36,NotModifiedT,resources/new_sounds_not_modified/F4lot.wav,0.386965569882676,None,None,None,None,e,F,0,12,12,12,,,,,95.89027930004522,,,,,,,,,,,,,,,,,,,,,,,,,,,,,,,,,,,,,,,,,,,,,,,,,95.86251390003599,95.89027930004522,96.37633490003645,0.5141853000968695,96.75958680000622,96.77619080001023,0.9140415000729263,97.25942390004639,97.94402960001025,r,1.1703486000187695,None,None,,,,,,,,,,,,,,,,,,,,,,,,,,,,,,,,,,,,,,,,,,Aidan,001,2024-02-04_20h37.49.913,M2_experiment1,2023.2.3,60.01972244930594,2024-02-04 20h38.06.459800 +0100,
54,NotModifiedSH,resources/new_sounds_not_modified/F5thrasher.wav,0.585496600933162,None,None,None,None,e,F,0,13,13,30,,,,,97.96279610006604,,,,,,,,,,,,,,,,,,,,,,,,,,,,,,,,,,,,,,,,,,,,,,,,,97.9448111000238,97.96279610006604,98.45915290003177,0.5147181000793353,99.04226240003482,99.07541419996414,,99.54237439995632,100.2600616000127,e,1.2122936999658123,None,None,,,,,,,,,,,,,,,,,,,,,,,,,,,,,,,,,,,,,,,,,,Aidan,001,2024-02-04_20h37.49.913,M2_experiment1,2023.2.3,60.01972244930594,2024-02-04 20h38.06.459800 +0100,
28,ModifiedSH,resources/new_sounds_2/F3flushing.wav,0.687845804988662,None,None,None,None,r,F,0,14,14,4,,,,,100.27722709998488,,,,,,,,,,,,,,,,,,,,,,,,,,,,,,,,,,,,,,,,,,,,,,,,,100.26084770006128,100.27722709998488,100.77493069996126,0.514444199972786,101.45800230000168,101.47466069995426,1.2141715999459848,101.95781589997932,103.675397300045,r,2.206872300012037,None,None,,,,,,,,,,,,,,,,,,,,,,,,,,,,,,,,,,,,,,,,,,Aidan,001,2024-02-04_20h37.49.913,M2_experiment1,2023.2.3,60.01972244930594,2024-02-04 20h38.06.459800 +0100,
27,ModifiedSH,resources/new_sounds_2/M4flesh.wav,0.722767978649223,None,None,None,None,r,M,0,15,15,3,,,,,103.69253450003453,,,,,,,,,,,,,,,,,,,,,,,,,,,,,,,,,,,,,,,,,,,,,,,,,103.67617120000068,103.69253450003453,104.19043660000898,0.5146313000004739,104.9067139000399,104.9236659000162,,105.40660910005681,105.9913147999905,r,1.0810912000015378,None,None,,,,,,,,,,,,,,,,,,,,,,,,,,,,,,,,,,,,,,,,,,Aidan,001,2024-02-04_20h37.49.913,M2_experiment1,2023.2.3,60.01972244930594,2024-02-04 20h38.06.459800 +0100,
52,NotModifiedSH,resources/new_sounds_not_modified/M4swoosh.wav,0.736227123531279,None,None,None,None,e,M,0,16,16,28,,,,,106.00977130001411,,,,,,,,,,,,,,,,,,,,,,,,,,,,,,,,,,,,,,,,,,,,,,,,,105.99209219997283,106.00977130001411,106.50632939999923,0.5146025000140071,107.23935259995051,107.27582209999673,,107.74008929997217,109.77381709998008,r,2.528314300114289,None,None,,,,,,,,,,,,,,,,,,,,,,,,,,,,,,,,,,,,,,,,,,Aidan,001,2024-02-04_20h37.49.913,M2_experiment1,2023.2.3,60.01972244930594,2024-02-04 20h38.06.459800 +0100,
34,ModifiedSH,resources/new_sounds_2/M7mosh.wav,0.486031746031746,None,None,None,None,r,M,0,17,17,10,,,,,109.79178750002757,,,,,,,,,,,,,,,,,,,,,,,,,,,,,,,,,,,,,,,,,,,,,,,,,109.77478770003654,109.79178750002757,110.28832399996463,0.5139298000140116,110.7715236999793,110.78833759995177,1.0139393999706954,111.27131029998418,112.35575079999398,e,1.571128400042653,None,None,,,,,,,,,,,,,,,,,,,,,,,,,,,,,,,,,,,,,,,,,,Aidan,001,2024-02-04_20h37.49.913,M2_experiment1,2023.2.3,60.01972244930594,2024-02-04 20h38.06.459800 +0100,
30,ModifiedT,resources/new_sounds_2/F3footer.wav,0.597777777777778,None,None,None,None,r,F,0,18,18,6,,,,,112.3726945000235,,,,,,,,,,,,,,,,,,,,,,,,,,,,,,,,,,,,,,,,,,,,,,,,,112.35653250000905,112.3726945000235,112.8712860000087,0.5151707999175414,113.45400639995933,113.47060350002721,1.114447999978438,113.95375139999669,114.33858209999744,r,0.8786868000170216,None,None,,,,,,,,,,,,,,,,,,,,,,,,,,,,,,,,,,,,,,,,,,Aidan,001,2024-02-04_20h37.49.913,M2_experiment1,2023.2.3,60.01972244930594,2024-02-04 20h38.06.459800 +0100,
42,NotModifiedT,resources/new_sounds_not_modified/F4feat.wav,0.478604920503187,None,None,None,None,e,F,0,19,19,18,,,,,114.35717500001192,,,,,,,,,,,,,,,,,,,,,,,,,,,,,,,,,,,,,,,,,,,,,,,,,114.33936240000185,114.35717500001192,114.85373099998105,0.5147479999577627,115.31999300001189,115.33665069995914,0.9976645999122411,115.81980449997354,115.99114639998879,e,0.6649592000758275,None,None,,,,,,,,,,,,,,,,,,,,,,,,,,,,,,,,,,,,,,,,,,Aidan,001,2024-02-04_20h37.49.913,M2_experiment1,2023.2.3,60.01972244930594,2024-02-04 20h38.06.459800 +0100,
50,NotModifiedSH,resources/new_sounds_not_modified/M3dish.wav,0.409302075267592,None,None,None,None,e,M,0,20,20,26,,,,,116.00721710000653,,,,,,,,,,,,,,,,,,,,,,,,,,,,,,,,,,,,,,,,,,,,,,,,,115.99193380004726,116.00721710000653,116.50307119998615,0.5114982000086457,116.90291069995146,116.91954889998306,0.9279723999788985,117.40272739995271,118.00450889999047,e,1.0991741999750957,None,None,,,,,,,,,,,,,,,,,,,,,,,,,,,,,,,,,,,,,,,,,,Aidan,001,2024-02-04_20h37.49.913,M2_experiment1,2023.2.3,60.01972244930594,2024-02-04 20h38.06.459800 +0100,
26,ModifiedSH,resources/new_sounds_2/F2fleshing.wav,0.620294784580499,None,None,None,None,r,F,0,21,21,2,,,,,118.02197140001226,,,,,,,,,,,,,,,,,,,,,,,,,,,,,,,,,,,,,,,,,,,,,,,,,118.00528379995376,118.02197140001226,118.51911640004255,0.514192400034517,119.13556339999195,119.15207880001981,1.1471514999866486,119.63520000001881,119.70349600003101,r,0.5626909000566229,None,None,,,,,,,,,,,,,,,,,,,,,,,,,,,,,,,,,,,,,,,,,,Aidan,001,2024-02-04_20h37.49.913,M2_experiment1,2023.2.3,60.01972244930594,2024-02-04 20h38.06.459800 +0100,
53,NotModifiedSH,resources/new_sounds_not_modified/M6fresher.wav,0.558439616650624,None,None,None,None,e,M,0,22,22,29,,,,,119.7217894999776,,,,,,,,,,,,,,,,,,,,,,,,,,,,,,,,,,,,,,,,,,,,,,,,,119.70428359997459,119.7217894999776,120.21849220001604,0.5145918000489473,120.76818859996274,120.78483699995559,1.0809337999671698,121.26815450005233,121.53633919998538,e,0.7570964000187814,None,None,,,,,,,,,,,,,,,,,,,,,,,,,,,,,,,,,,,,,,,,,,Aidan,001,2024-02-04_20h37.49.913,M2_experiment1,2023.2.3,60.01972244930594,2024-02-04 20h38.06.459800 +0100,
37,ModifiedT,resources/new_sounds_2/F4lot.wav,0.449274376417234,None,None,None,None,r,F,0,23,23,13,,,,,121.55232480005361,,,,,,,,,,,,,,,,,,,,,,,,,,,,,,,,,,,,,,,,,,,,,,,,,121.53711799997836,121.55232480005361,122.05102769995574,0.5142830000258982,122.50087210000493,122.50087210000493,0.9645458000013605,123.00081850006245,123.20214279997163,r,0.6867774999700487,None,None,,,,,,,,,,,,,,,,,,,,,,,,,,,,,,,,,,,,,,,,,,Aidan,001,2024-02-04_20h37.49.913,M2_experiment1,2023.2.3,60.01972244930594,2024-02-04 20h38.06.459800 +0100,
38,ModifiedT,resources/new_sounds_2/M7butter.wav,0.44172335600907,None,None,None,None,r,M,0,24,24,14,,,,,123.2209748000605,,,,,,,,,,,,,,,,,,,,,,,,,,,,,,,,,,,,,,,,,,,,,,,,,123.20293220004532,123.2209748000605,123.71716770005878,0.5146031000185758,124.1507368000457,124.16711050004233,0.9645466000074521,124.65018969995435,125.63480480003636,r,1.4765511999139562,None,None,,,,,,,,,,,,,,,,,,,,,,,,,,,,,,,,,,,,,,,,,,Aidan,001,2024-02-04_20h37.49.913,M2_experiment1,2023.2.3,60.01972244930594,2024-02-04 20h38.06.459800 +0100,
35,NotModifiedSH,resources/new_sounds_not_modified/M7mosh.wav,0.618134342110551,None,None,None,None,e,M,0,25,25,11,,,,,125.65326170006301,,,,,,,,,,,,,,,,,,,,,,,,,,,,,,,,,,,,,,,,,,,,,,,,,125.63560060004238,125.65326170006301,126.14965729997493,0.5144242999376729,126.76609050005209,126.79816250002477,,127.26601639995351,127.60082499997225,e,0.8237476999638602,None,None,,,,,,,,,,,,,,,,,,,,,,,,,,,,,,,,,,,,,,,,,,Aidan,001,2024-02-04_20h37.49.913,M2_experiment1,2023.2.3,60.01972244930594,2024-02-04 20h38.06.459800 +0100,
39,ModifiedSH,resources/new_sounds_2/M7fresher.wav,0.497256235827664,None,None,None,None,r,M,0,26,26,15,,,,,127.61790800001472,,,,,,,,,,,,,,,,,,,,,,,,,,,,,,,,,,,,,,,,,,,,,,,,,127.60158490005415,127.61790800001472,128.1156605000142,0.5144398000556976,128.59927809995133,128.61552190000657,1.014293699990958,129.0987080000341,132.29905060003512,e,3.691209299955517,None,None,,,,,,,,,,,,,,,,,,,,,,,,,,,,,,,,,,,,,,,,,,Aidan,001,2024-02-04_20h37.49.913,M2_experiment1,2023.2.3,60.01972244930594,2024-02-04 20h38.06.459800 +0100,
24,NotModifiedT,resources/new_sounds_not_modified/F1party.wav,0.63399526438517,None,None,None,None,e,F,0,27,27,0,,,,,132.31754680001177,,,,,,,,,,,,,,,,,,,,,,,,,,,,,,,,,,,,,,,,,,,,,,,,,132.29983300005551,132.31754680001177,132.81411270005628,0.514642299967818,133.44729469995946,133.44729469995946,1.1482480000704527,133.94696279999334,134.29853529995307,e,0.8366022000554949,None,None,,,,,,,,,,,,,,,,,,,,,,,,,,,,,,,,,,,,,,,,,,Aidan,001,2024-02-04_20h37.49.913,M2_experiment1,2023.2.3,60.01972244930594,2024-02-04 20h38.06.459800 +0100,
47,ModifiedT,resources/new_sounds_2/M6root.wav,0.557210884353742,None,None,None,None,r,M,0,28,28,23,,,,,134.3159421000164,,,,,,,,,,,,,,,,,,,,,,,,,,,,,,,,,,,,,,,,,,,,,,,,,134.2993338999804,134.3159421000164,134.81334230001085,0.5143749000271782,135.3633135999553,135.37999250006396,1.081029099994339,135.86302960000467,135.9815316000022,e,0.6118567000376061,None,None,,,,,,,,,,,,,,,,,,,,,,,,,,,,,,,,,,,,,,,,,,Aidan,001,2024-02-04_20h37.49.913,M2_experiment1,2023.2.3,60.01972244930594,2024-02-04 20h38.06.459800 +0100,
25,ModifiedSH,resources/new_sounds_2/F1swoosh.wav,0.770486715748874,None,None,None,None,r,F,0,29,29,1,,,,,135.99883589998353,,,,,,,,,,,,,,,,,,,,,,,,,,,,,,,,,,,,,,,,,,,,,,,,,135.98232229996938,135.99883589998353,136.49643429997377,0.5144780999980867,137.26262160006445,137.2793140000431,,137.76244540000334,137.96382209996227,e,0.6917160999728367,None,None,,,,,,,,,,,,,,,,,,,,,,,,,,,,,,,,,,,,,,,,,,Aidan,001,2024-02-04_20h37.49.913,M2_experiment1,2023.2.3,60.01972244930594,2024-02-04 20h38.06.459800 +0100,
32,ModifiedT,resources/new_sounds_2/M2city.wav,0.658866213151928,None,None,None,None,r,M,0,30,30,8,,,,,137.98113129998092,,,,,,,,,,,,,,,,,,,,,,,,,,,,,,,,,,,,,,,,,,,,,,,,,137.96460000006482,137.98113129998092,138.4788644000655,0.5146323000080884,139.12882250000257,139.1453514000168,1.181135000078939,139.62871029996313,139.66340720001608,e,0.5274574999930337,None,None,,,,,,,,,,,,,,,,,,,,,,,,,,,,,,,,,,,,,,,,,,Aidan,001,2024-02-04_20h37.49.913,M2_experiment1,2023.2.3,60.01972244930594,2024-02-04 20h38.06.459800 +0100,
,,,,,,,,,,,,,,,,,,,,,,,,,,,,,,,,,,,,,,,,,,,,,,,,,,,,,,,,,,,,,,,,,,,,,,,,,,,,,,,,139.66395209997427,139.67966570006683,139.67966570006683,153.7749138000654,space,14.084475000039674,None,,,,,,,,,,,,,,,,,,,,,,,,,,,,,,,,,,,Aidan,001,2024-02-04_20h37.49.913,M2_experiment1,2023.2.3,60.01972244930594,2024-02-04 20h38.06.459800 +0100,
,,,,,,,,,,,,,,,,,,,,,,,,,,,,,,,,,,,,,,,,,,,,,,,,,,,,,,,,,,,,,,,,,,,,,,,,,,,,,,,,,,,,,,,153.77495890005957,153.79122640006244,153.79122640006244,160.02293700003065,space,6.223356900038198,None,,,,,,,,,,,,,,,,,,,,,,,,,,,,Aidan,001,2024-02-04_20h37.49.913,M2_experiment1,2023.2.3,60.01972244930594,2024-02-04 20h38.06.459800 +0100,
2,ModifiedSh,resources/new_sounds_not_modified/F2fish.wav,0.528250066930233,resources/new_sounds_2/F1fit.wav,0.423218058079413,resources/new_sounds_not_modified/F5fit.wav,0.2975247836995,3,F,,,,,0,0,0,1,160.07338119996712,,,,,,,,,,,,,,,,,,,,,,,,,,,,,,,,,,,,,,,,,,,,,,,,,,,,,,,,,,,,,,,,,,,,,,,,,,,,160.0522246999899,160.07338119996712,160.53824370005168,0.5153631999855861,161.07126830006018,19.52353910007514,161.55454369995277,161.55452539996477,162.00897089997306,179.56381780002266,162.4874541000463,162.48780080004363,162.79939699999522,179.56381780002266,162.79939699999522,163.2873160999734,183.76349270006176,t,20.951365799992345,None,p,16.237241999944672,None,2,,,,Aidan,001,2024-02-04_20h37.49.913,M2_experiment1,2023.2.3,60.01972244930594,2024-02-04 20h38.06.459800 +0100,
16,ModifiedT,resources/new_sounds_2/M2fit.wav,0.646553287981859,resources/new_sounds_not_modified/M4fit.wav,0.508424667314028,resources/new_sounds_not_modified/M5fish.wav,0.451129071842058,2,M,,,,,0,1,1,15,183.78193920000922,,,,,,,,,,,,,,,,,,,,,,,,,,,,,,,,,,,,,,,,,,,,,,,,,,,,,,,,,,,,,,,,,,,,,,,,,,,,183.7648527000565,183.78193920000922,184.27798809995875,0.5134969999780878,184.9277851000661,9.443996999994852,185.41115950001404,185.41163609995274,185.9370210999623,193.22498769999947,186.42766160005704,186.42785600005882,186.8781236000359,193.22498769999947,186.8781236000359,187.37848449999,193.95980549999513,r,7.065337099949829,None,p,6.188562100054696,None,1,,,,Aidan,001,2024-02-04_20h37.49.913,M2_experiment1,2023.2.3,60.01972244930594,2024-02-04 20h38.06.459800 +0100,
17,ModifiedT,resources/new_sounds_2/M2bosh.wav,0.387165532879819,resources/new_sounds_not_modified/M6bot.wav,0.501070841911371,resources/new_sounds_not_modified/M5bosh.wav,0.597358038485993,2,M,,,,,0,2,2,16,193.97867690003477,,,,,,,,,,,,,,,,,,,,,,,,,,,,,,,,,,,,,,,,,,,,,,,,,,,,,,,,,,,,,,,,,,,,,,,,,,,,193.9607674999861,193.97867690003477,194.47477490000892,0.5143741000210866,194.87442849995568,0.914020900032483,195.35785799997393,195.35803439995507,195.87411340000108,195.87411340000108,196.35764689999633,196.3576592000085,196.96571170003153,196.96571170003153,196.96571170003153,197.4573619000148,198.008714399999,e,1.0308630999643356,None,None,,,0,,,,Aidan,001,2024-02-04_20h37.49.913,M2_experiment1,2023.2.3,60.01972244930594,2024-02-04 20h38.06.459800 +0100,
11,ModifiedSH,resources/new_sounds_not_modified/M1fish.wav,0.569506825661794,resources/new_sounds_2/M7fit.wav,0.485691609977324,resources/new_sounds_not_modified/M3fit.wav,0.479334255844424,3,M,,,,,0,3,3,10,198.0274669000646,,,,,,,,,,,,,,,,,,,,,,,,,,,,,,,,,,,,,,,,,,,,,,,,,,,,,,,,,,,,,,,,,,,,,,,,,,,,198.00948919996154,198.0274669000646,198.5233264999697,0.5142170999897644,199.1186081999913,,199.58978479995858,199.59011809997028,200.10666799999308,,200.57320009998512,200.5733147999621,201.06849400000647,201.06849400000647,201.06849400000647,201.55685419996735,202.09247380006127,t,1.015166600001976,None,None,,,0,,,,Aidan,001,2024-02-04_20h37.49.913,M2_experiment1,2023.2.3,60.01972244930594,2024-02-04 20h38.06.459800 +0100,
8,ModifiedSH,resources/new_sounds_not_modified/M3bot.wav,0.368685295497059,resources/new_sounds_not_modified/M1bosh.wav,0.5055628425466665,resources/new_sounds_2/M5bosh.wav,0.4857823129251701,2,M,,,,,0,4,4,7,202.11038910003845,,,,,,,,,,,,,,,,,,,,,,,,,,,,,,,,,,,,,,,,,,,,,,,,,,,,,,,,,,,,,,,,,,,,,,,,,,,,202.09325929998886,202.11038910003845,202.60743360000197,0.5145428000250831,202.9906229999615,0.897731399978511,203.4739141999744,203.47404789997964,203.99497440003324,203.99497440003324,204.4734551999718,204.4736273000366,204.97670140000992,204.97670140000992,204.95654339995235,205.45653069997206,206.0413300000364,e,1.0691503999987617,None,None,,,0,,,,Aidan,001,2024-02-04_20h37.49.913,M2_experiment1,2023.2.3,60.01972244930594,2024-02-04 20h38.06.459800 +0100,
7,ModifiedSH,resources/new_sounds_2/M1bosh.wav,0.4574829931972789,resources/new_sounds_not_modified/M2bot.wav,0.415863975908209,resources/new_sounds_not_modified/M4bosh.wav,0.4533657452807347,3,M,,,,,0,5,5,6,206.0603443,,,,,,,,,,,,,,,,,,,,,,,,,,,,,,,,,,,,,,,,,,,,,,,,,,,,,,,,,,,,,,,,,,,,,,,,,,,,206.04213399998844,206.0603443,206.5561708000023,0.5144096000585705,207.02264670003206,0.9808830000692979,207.50586539995857,207.50597490001238,207.93644189997576,207.93644189997576,208.42217160004657,208.42239989995724,208.89342400000896,208.89342400000896,208.87233729998115,209.37197800003923,209.69034059997648,r,0.8090598999988288,None,None,,,0,,,,Aidan,001,2024-02-04_20h37.49.913,M2_experiment1,2023.2.3,60.01972244930594,2024-02-04 20h38.06.459800 +0100,
10,ModifiedT,resources/new_sounds_not_modified/M2fit.wav,0.423218058079414,resources/new_sounds_not_modified/M5fish.wav,0.451129071842058,resources/new_sounds_2/M4fit.wav,0.597210884353741,1,M,,,,,0,6,6,9,209.70882649999112,,,,,,,,,,,,,,,,,,,,,,,,,,,,,,,,,,,,,,,,,,,,,,,,,,,,,,,,,,,,,,,,,,,,,,,,,,,,209.69112670002505,209.70882649999112,210.20571939996444,0.5149671999970451,210.63814860000275,0.947393300011754,211.12117790000048,211.1214290999691,211.58780880004633,211.58780880004633,212.0708690000465,212.0710895000142,212.67879429995082,212.67879429995082,212.67879429995082,213.17069139995147,213.7225542999804,t,1.0381701999576762,None,None,,,0,,,,Aidan,001,2024-02-04_20h37.49.913,M2_experiment1,2023.2.3,60.01972244930594,2024-02-04 20h38.06.459800 +0100,
20,ModifiedSH,resources/new_sounds_2/F2push.wav,0.418027210884354,resources/new_sounds_not_modified/F4push.wav,0.436144678520506,resources/new_sounds_not_modified/F3put.wav,0.437781204290985,2,F,,,,,0,7,7,19,213.7414998000022,,,,,,,,,,,,,,,,,,,,,,,,,,,,,,,,,,,,,,,,,,,,,,,,,,,,,,,,,,,,,,,,,,,,,,,,,,,,213.72339890000876,213.7414998000022,214.2368746000575,0.5138671000022441,214.68745740002487,,215.1531849000603,215.15342130003265,215.60726570000406,215.60726570000406,216.0862180000404,216.08650999997045,216.53919200005475,216.53919200005475,216.51951400004327,217.0193421000149,217.30574350000825,t,0.7688834000146016,None,None,,,0,,,,Aidan,001,2024-02-04_20h37.49.913,M2_experiment1,2023.2.3,60.01972244930594,2024-02-04 20h38.06.459800 +0100,
4,ModifiedT,resources/new_sounds_not_modified/M4mat.wav,0.4451593985921889,resources/new_sounds_2/M3mat.wav,0.494308390022676,resources/new_sounds_not_modified/M2mash.wav,0.7358947371573947,1,M,,,,,0,8,8,3,217.32457070006058,,,,,,,,,,,,,,,,,,,,,,,,,,,,,,,,,,,,,,,,,,,,,,,,,,,,,,,,,,,,,,,,,,,,,,,,,,,,217.30655330000445,217.32457070006058,217.81898540002294,0.5128175000427291,218.26885069999844,0.9626764999702573,218.7520983000286,218.75237230005442,219.25646930001676,219.25646930001676,219.75188310001977,219.7519837000058,220.5181383000454,,220.49921849998645,,220.8034412000561,t,0.2959686000831425,None,None,,,0,,,,Aidan,001,2024-02-04_20h37.49.913,M2_experiment1,2023.2.3,60.01972244930594,2024-02-04 20h38.06.459800 +0100,
5,ModifiedT,resources/new_sounds_not_modified/F4met.wav,0.44494520825283956,resources/new_sounds_2/F2met.wav,0.634104308390023,resources/new_sounds_not_modified/F1mesh.wav,0.5571319490698841,1,F,,,,,0,9,9,4,220.8229708999861,,,,,,,,,,,,,,,,,,,,,,,,,,,,,,,,,,,,,,,,,,,,,,,,,,,,,,,,,,,,,,,,,,,,,,,,,,,,220.8042432999937,220.8229708999861,221.31786740000825,0.5140110000502318,221.76763899996877,8.59286209999118,222.2510811999673,222.25103149997304,222.89980879996438,229.41324989998247,223.3838428000454,223.3840472000069,223.95723679999355,229.41324989998247,223.95723679999355,224.45018359995447,231.11430849996395,t,7.142917499993928,None,p,5.306115300045349,None,1,,,,Aidan,001,2024-02-04_20h37.49.913,M2_experiment1,2023.2.3,60.01972244930594,2024-02-04 20h38.06.459800 +0100,
14,ModifiedSH,resources/new_sounds_not_modified/F2bosh.wav,0.494392229081527,resources/new_sounds_not_modified/F5bot.wav,0.485673207115724,resources/new_sounds_2/F1bosh.wav,0.520634920634921,1,F,,,,,0,10,10,13,231.13174950005487,,,,,,,,,,,,,,,,,,,,,,,,,,,,,,,,,,,,,,,,,,,,,,,,,,,,,,,,,,,,,,,,,,,,,,,,,,,,231.11519240005873,231.13174950005487,231.62880049995147,0.5139607000164688,232.1286250000121,9.644631500006653,232.6118025999749,232.61193110005698,233.12913899996784,240.77588189998642,233.5956567999674,233.59600529997843,234.13126369996462,240.77588189998642,234.13126369996462,234.6280188000528,241.1464562000474,r,7.008222899981774,None,p,6.483992199995555,None,1,,,,Aidan,001,2024-02-04_20h37.49.913,M2_experiment1,2023.2.3,60.01972244930594,2024-02-04 20h38.06.459800 +0100,
21,ModifiedSH,resources/new_sounds_not_modified/F5fish.wav,0.478583202882902,resources/new_sounds_2/F4fish.wav,0.366258503401361,resources/new_sounds_not_modified/F2fit.wav,0.374261916532497,3,F,,,,,0,11,11,20,241.16425040003378,,,,,,,,,,,,,,,,,,,,,,,,,,,,,,,,,,,,,,,,,,,,,,,,,,,,,,,,,,,,,,,,,,,,,,,,,,,,241.14776339998934,241.16425040003378,241.65891030000057,0.5116426000604406,242.1420035000192,0.9947296000318602,242.62535970006138,242.62526030003792,243.00492620002478,243.00492620002478,243.49181689997204,243.4916823000298,243.8830014000414,243.8830014000414,243.8830014000414,244.37470729998313,244.86004800000228,t,0.9699711999855936,None,None,,,0,,,,Aidan,001,2024-02-04_20h37.49.913,M2_experiment1,2023.2.3,60.01972244930594,2024-02-04 20h38.06.459800 +0100,
6,ModifiedT,resources/new_sounds_not_modified/M1met.wav,0.532038259057699,resources/new_sounds_2/M3met.wav,0.558503401360544,resources/new_sounds_not_modified/M5mesh.wav,0.5032130872900709,1,M,,,,,0,12,12,5,244.8774209000403,,,,,,,,,,,,,,,,,,,,,,,,,,,,,,,,,,,,,,,,,,,,,,,,,,,,,,,,,,,,,,,,,,,,,,,,,,,,244.86085499997716,244.8774209000403,245.37512410001364,0.5146645000204444,245.90771810000297,1.0472553999861702,246.40805239998735,246.40799240003108,246.97869530005846,246.97869530005846,247.4573843999533,247.45812590004644,247.9748728000559,247.9748728000559,247.95726519997697,,248.37593119998928,t,0.41030540002975613,None,None,,,0,,,,Aidan,001,2024-02-04_20h37.49.913,M2_experiment1,2023.2.3,60.01972244930594,2024-02-04 20h38.06.459800 +0100,
13,ModifiedT,resources/new_sounds_not_modified/F1fish.wav,0.519196656146427,resources/new_sounds_not_modified/F4fit.wav,0.297524783699501,resources/new_sounds_2/F2fit.wav,0.443741496598639,2,F,,,,,0,13,13,12,248.3940608999692,,,,,,,,,,,,,,,,,,,,,,,,,,,,,,,,,,,,,,,,,,,,,,,,,,,,,,,,,,,,,,,,,,,,,,,,,,,,248.3767301000189,248.3940608999692,248.89105770003516,0.5147057001013309,249.43811470002402,1.0617613000795245,249.90833080001175,249.9084953000187,250.21721759997308,250.21721759997308,250.70814730005804,250.70825960001676,251.16393819998484,251.16393819998484,251.14124170003925,251.64104859996587,252.32628459995613,r,1.1817693000193685,None,None,,,0,,,,Aidan,001,2024-02-04_20h37.49.913,M2_experiment1,2023.2.3,60.01972244930594,2024-02-04 20h38.06.459800 +0100,
1,ModifiedT,resources/new_sounds_not_modified/F2fit.wav,0.374261916532496,resources/new_sounds_not_modified/F5fish.wav,0.478583202882902,resources/new_sounds_2/F4fit.wav,0.41736473916697,1,F,,,,,0,14,14,0,252.3439800000051,,,,,,,,,,,,,,,,,,,,,,,,,,,,,,,,,,,,,,,,,,,,,,,,,,,,,,,,,,,,,,,,,,,,,,,,,,,,252.3270830999827,252.3439800000051,252.84079240006395,0.5140870999312028,253.22397070005536,0.8972636999096721,253.70702670002356,253.70714820005233,254.19840760005172,254.19840760005172,254.6901084999554,254.69017440002645,255.1066553000128,,255.1066553000128,255.60645429999568,256.0582019999856,e,0.9398004999384284,None,None,,,0,,,,Aidan,001,2024-02-04_20h37.49.913,M2_experiment1,2023.2.3,60.01972244930594,2024-02-04 20h38.06.459800 +0100,
22,ModifiedSH,resources/new_sounds_not_modified/F1mash.wav,0.601753675244161,resources/new_sounds_2/F3mash.wav,0.42437641723356,resources/new_sounds_not_modified/F4mat.wav,0.401181209050264,3,F,,,,,0,15,15,21,256.07721420004964,,,,,,,,,,,,,,,,,,,,,,,,,,,,,,,,,,,,,,,,,,,,,,,,,,,,,,,,,,,,,,,,,,,,,,,,,,,,256.0590020000236,256.07721420004964,256.5727213000646,0.514091599965468,257.18937330006156,1.1307407999411225,257.67244100000244,257.6725372999557,258.1090328999562,258.1090328999562,258.58888970001135,258.5888135000481,259.0053052000003,259.0053052000003,258.98872150003444,259.4884361999575,259.9569457999896,t,0.9552347999997437,None,None,,,0,,,,Aidan,001,2024-02-04_20h37.49.913,M2_experiment1,2023.2.3,60.01972244930594,2024-02-04 20h38.06.459800 +0100,
12,ModifiedSH,resources/new_sounds_not_modified/F4bot.wav,0.390471530438234,resources/new_sounds_not_modified/F3bosh.wav,0.505513996768869,resources/new_sounds_2/F2bosh.wav,0.423673469387755,2,F,,,,,0,16,16,11,259.9760293000145,,,,,,,,,,,,,,,,,,,,,,,,,,,,,,,,,,,,,,,,,,,,,,,,,,,,,,,,,,,,,,,,,,,,,,,,,,,,259.9577947000507,259.9760293000145,260.47146210004576,0.5140812000026926,260.87144390004687,0.914058200083673,261.3545612000162,261.3545917000505,261.87585630000103,261.87585630000103,262.35421510005835,262.3543130000238,262.8040829000529,,262.8040829000529,263.2871128000552,263.78890150005464,t,0.9706289001042023,None,None,,,0,,,,Aidan,001,2024-02-04_20h37.49.913,M2_experiment1,2023.2.3,60.01972244930594,2024-02-04 20h38.06.459800 +0100,
3,ModifiedT,resources/new_sounds_2/F5mat.wav,0.565396825396825,resources/new_sounds_not_modified/F4mash.wav,0.38066522534541036,resources/new_sounds_not_modified/F2mat.wav,0.5007174554648515,3,F,,,,,0,17,17,2,263.8069495999953,,,,,,,,,,,,,,,,,,,,,,,,,,,,,,,,,,,,,,,,,,,,,,,,,,,,,,,,,,,,,,,,,,,,,,,,,,,,263.7897006999701,263.8069495999953,264.30347439995967,0.5141479000449181,264.8702795000281,1.0809487000806257,265.369839400053,265.37005299996815,265.7594955000095,265.7594955000095,266.2360815999564,266.23627549995433,266.75010830000974,266.75010830000974,266.75010830000974,267.23591269995086,267.6042390000075,e,0.8371826999355108,None,None,,,0,,,,Aidan,001,2024-02-04_20h37.49.913,M2_experiment1,2023.2.3,60.01972244930594,2024-02-04 20h38.06.459800 +0100,
15,ModifiedSH,resources/new_sounds_not_modified/M2fish.wav,0.602031419699607,resources/new_sounds_not_modified/M5fit.wav,0.593107043618346,resources/new_sounds_2/M1fish.wav,0.512562358276644,1,M,,,,,0,18,18,14,267.622226000065,,,,,,,,,,,,,,,,,,,,,,,,,,,,,,,,,,,,,,,,,,,,,,,,,,,,,,,,,,,,,,,,,,,,,,,,,,,,267.6050317999907,267.622226000065,268.11878430005163,0.5141211000736803,268.7353651999729,1.130703500006348,269.21859379997477,269.21880159996215,269.822926599998,269.822926599998,270.3014148999937,270.3017554000602,270.8298940999666,270.8298940999666,270.8298940999666,271.3178477999754,271.75289859995246,r,0.9135928000323474,None,None,,,0,,,,Aidan,001,2024-02-04_20h37.49.913,M2_experiment1,2023.2.3,60.01972244930594,2024-02-04 20h38.06.459800 +0100,
18,ModifiedT,resources/new_sounds_2/M2put.wav,0.532199546485261,resources/new_sounds_not_modified/M7put.wav,0.410382098763918,resources/new_sounds_not_modified/M5push.wav,0.499025816019625,2,M,,,,,0,19,19,17,271.7718523000367,,,,,,,,,,,,,,,,,,,,,,,,,,,,,,,,,,,,,,,,,,,,,,,,,,,,,,,,,,,,,,,,,,,,,,,,,,,,271.7537124999799,271.7718523000367,272.26750680000987,0.5141735000070184,272.80054490000475,1.0472050999524072,273.30043730000034,273.30059070003915,273.72984769998584,273.72984769998584,274.20014820003416,274.200297400041,274.7190963999601,274.7190963999601,274.7190963999601,275.1998354999814,275.468419300043,t,0.7452557000797242,None,None,,,0,,,,Aidan,001,2024-02-04_20h37.49.913,M2_experiment1,2023.2.3,60.01972244930594,2024-02-04 20h38.06.459800 +0100,
19,ModifiedT,resources/new_sounds_2/F2put.wav,0.521360544217687,resources/new_sounds_not_modified/F4push.wav,0.436144678520506,resources/new_sounds_not_modified/F5put.wav,0.363522850118329,2,F,,,,,0,20,20,18,275.48712429997977,,,,,,,,,,,,,,,,,,,,,,,,,,,,,,,,,,,,,,,,,,,,,,,,,,,,,,,,,,,,,,,,,,,,,,,,,,,,275.46921919996385,275.48712429997977,275.9828504000325,0.5140222000190988,276.51606960000936,1.0472408999921754,276.9992582000559,276.99934040001824,277.46585240005516,,277.93223429995123,277.9323207999463,278.3099197000265,278.3099197000265,278.3099197000265,278.7985940000508,279.2838447999675,r,0.9588133000070229,None,None,,,0,,,,Aidan,001,2024-02-04_20h37.49.913,M2_experiment1,2023.2.3,60.01972244930594,2024-02-04 20h38.06.459800 +0100,
9,ModifiedSH,resources/new_sounds_not_modified/M4bot.wav,0.453615769026229,resources/new_sounds_not_modified/M3bosh.wav,0.524217377306996,resources/new_sounds_2/M2bosh.wav,0.387165532879819,2,M,,,,,0,21,21,8,279.3015580000356,,,,,,,,,,,,,,,,,,,,,,,,,,,,,,,,,,,,,,,,,,,,,,,,,,,,,,,,,,,,,,,,,,,,,,,,,,,,279.28464540001005,279.3015580000356,279.7983879999956,0.5141316000372171,280.2648364000488,8.359323500073515,280.74787990003824,280.74809359995413,281.28486350004096,287.66009200003464,281.76435349998064,281.7644815000589,282.1680202999851,287.66009200003464,282.1680202999851,282.663963100058,288.17811770003755,t,5.994012200040743,None,p,5.343645700020716,None,1,,,,Aidan,001,2024-02-04_20h37.49.913,M2_experiment1,2023.2.3,60.01972244930594,2024-02-04 20h38.06.459800 +0100,
,,,,,,,,,,,,,,,,,,,,,,,,,,,,,,,,,,,,,,,,,,,,,,,,,,,,,,,,,,,,,,,,,,,,,,,,,,,,,,,,,,,,,,,,,,,,,,,,,,,,,,,,,,,,,,,,,,,,,,288.17886260000523,288.1933460000437,291.19238390005194,,,,,,,,
