ItemNb,Condition,Sound1,DurationSound1,Sound2,DurationSound2,Sound3,DurationSound3,ExpectedKey,Condition2,trials_task3.thisRepN,trials_task3.thisTrialN,trials_task3.thisN,trials_task3.thisIndex,trials_task1.thisRepN,trials_task1.thisTrialN,trials_task1.thisN,trials_task1.thisIndex,thisRow.t,notes,Welcome.started,textWelcomeMessage.started,keyWelcome.started,Welcome.stopped,keyWelcome.keys,keyWelcome.rt,keyWelcome.duration,Welcome_2.started,textWelcome2.started,key_resp_5.started,Welcome_2.stopped,key_resp_5.keys,key_resp_5.rt,key_resp_5.duration,Welcome_3.started,textWelcome3.started,key_resp_6.started,Welcome_3.stopped,key_resp_6.keys,key_resp_6.rt,key_resp_6.duration,blank.started,blank1.started,blank1.stopped,blank.stopped,volume_explanation.started,text_volume.started,key_resp_8.started,volume_explanation.stopped,key_resp_8.keys,key_resp_8.rt,key_resp_8.duration,volume.started,text_2.started,key_resp_7.started,sound_testvolume.started,volume.stopped,key_resp_7.keys,key_resp_7.rt,key_resp_7.duration,explanation.started,text.started,key_info_oddity.started,explanation.stopped,key_info_oddity.keys,key_info_oddity.rt,key_info_oddity.duration,task3.started,key_replay3.started,text_recording1_3.started,sound1_3.started,text_recording1_3.stopped,key_resp_question3.started,sound1_3.stopped,text_questiontask3.started,task3.stopped,key_resp_question3.keys,key_resp_question3.rt,key_resp_question3.duration,key_replay3.keys,explanation_3.started,text_4.started,key_resp_3.started,explanation_3.stopped,key_resp_3.keys,key_resp_3.rt,key_resp_3.duration,explanation_1.started,text_explanation_1.started,key_resp.started,explanation_1.stopped,key_resp.keys,key_resp.rt,key_resp.duration,task1.started,key_replay1.started,text_recording1.started,sound1.started,text_recording1.stopped,sound1.stopped,text_recording2.started,sound2.started,text_recording2.stopped,sound2.stopped,text_recording3.started,sound3.started,text_recording3.stopped,sound3.stopped,key_resp_question1.started,text_question1.started,task1.stopped,key_resp_question1.keys,key_resp_question1.rt,key_resp_question1.duration,key_replay1.keys,replay_count,key_replay1.rt,key_replay1.duration,Bye.started,text_6.started,text_6.stopped,Bye.stopped,participant,session,date,expName,psychopyVersion,frameRate,expStart,
,,,,,,,,,,,,,,,,,,,,0.03839529992546886,0.0706836999161169,0.0706836999161169,27.353680899948813,space,27.2695195999695,None,,,,,,,,,,,,,,,,,,,,,,,,,,,,,,,,,,,,,,,,,,,,,,,,,,,,,,,,,,,,,,,,,,,,,,,,,,,,,,,,,,,,,,,,,,,,,,,,Ali,001,2024-02-04_21h45.24.361,M2_experiment1,2023.2.3,60.03608169425545,2024-02-04 21h45.38.806025 +0100,
,,,,,,,,,,,,,,,,,,,,,,,,,,,27.353721499908715,27.36948669992853,27.36948669992853,30.985554700018838,space,3.6042026999639347,None,,,,,,,,,,,,,,,,,,,,,,,,,,,,,,,,,,,,,,,,,,,,,,,,,,,,,,,,,,,,,,,,,,,,,,,,,,,,,,,,,,,,,,,,,Ali,001,2024-02-04_21h45.24.361,M2_experiment1,2023.2.3,60.03608169425545,2024-02-04 21h45.38.806025 +0100,
,,,,,,,,,,,,,,,,,,,,,,,,,,,,,,,,,,30.985591499949805,31.00246370001696,31.00246370001696,64.7417121999897,space,33.7259328000946,None,,,,,,,,,,,,,,,,,,,,,,,,,,,,,,,,,,,,,,,,,,,,,,,,,,,,,,,,,,,,,,,,,,,,,,,,,,,,,,,,,,Ali,001,2024-02-04_21h45.24.361,M2_experiment1,2023.2.3,60.03608169425545,2024-02-04 21h45.38.806025 +0100,
,,,,,,,,,,,,,,,,,,,,,,,,,,,,,,,,,,,,,,,,,64.74175439996179,64.75658419996034,65.7561436999822,65.7401442999253,65.74016679998022,65.7561436999822,65.7561436999822,76.27041369990911,space,10.50623669999186,None,,,,,,,,,,,,,,,,,,,,,,,,,,,,,,,,,,,,,,,,,,,,,,,,,,,,,,,,,,,,,,,,,,,,,,,Ali,001,2024-02-04_21h45.24.361,M2_experiment1,2023.2.3,60.03608169425545,2024-02-04 21h45.38.806025 +0100,
,,,,,,,,,,,,,,,,,,,,,,,,,,,,,,,,,,,,,,,,,,,,,,,,,,,,76.27045219996944,76.29703949997202,77.28706120001152,77.2856318499311,90.48230839997996,space,13.19303020008374,None,,,,,,,,,,,,,,,,,,,,,,,,,,,,,,,,,,,,,,,,,,,,,,,,,,,,,,,,,,,,,,,Ali,001,2024-02-04_21h45.24.361,M2_experiment1,2023.2.3,60.03608169425545,2024-02-04 21h45.38.806025 +0100,
,,,,,,,,,,,,,,,,,,,,,,,,,,,,,,,,,,,,,,,,,,,,,,,,,,,,,,,,,,,,90.48235079995357,90.49859669990838,90.49859669990838,122.85494170000311,space,32.34909020003397,None,,,,,,,,,,,,,,,,,,,,,,,,,,,,,,,,,,,,,,,,,,,,,,,,,,,,,,,,Ali,001,2024-02-04_21h45.24.361,M2_experiment1,2023.2.3,60.03608169425545,2024-02-04 21h45.38.806025 +0100,
48,ModifiedT,resources/new_sounds_2/M3lottery.wav,0.649773242630385,None,None,None,None,r,M,0,0,0,24,,,,,122.90972459991463,,,,,,,,,,,,,,,,,,,,,,,,,,,,,,,,,,,,,,,,,,,,,,,,,122.8964960000012,122.90972459991463,123.37021299998742,0.5153314000926912,124.0199821999995,124.0199821999995,1.1655564000830054,124.52137480000965,152.99504349997733,e,28.963203899911605,None,None,,,,,,,,,,,,,,,,,,,,,,,,,,,,,,,,,,,,,,,,,,,Ali,001,2024-02-04_21h45.24.361,M2_experiment1,2023.2.3,60.03608169425545,2024-02-04 21h45.38.806025 +0100,
35,NotModifiedSH,resources/new_sounds_not_modified/M7mosh.wav,0.618134342110551,None,None,None,None,e,M,0,1,1,11,,,,,153.01366129994858,,,,,,,,,,,,,,,,,,,,,,,,,,,,,,,,,,,,,,,,,,,,,,,,,152.99825549998786,153.01366129994858,153.50997859996278,0.5121208999771625,154.1606560999062,154.12641499994788,,154.62631710001733,163.82534410001244,e,9.693840499967337,None,None,,,,,,,,,,,,,,,,,,,,,,,,,,,,,,,,,,,,,,,,,,,Ali,001,2024-02-04_21h45.24.361,M2_experiment1,2023.2.3,60.03608169425545,2024-02-04 21h45.38.806025 +0100,
25,ModifiedSH,resources/new_sounds_2/F1swoosh.wav,0.770486715748874,None,None,None,None,r,F,0,2,2,1,,,,,163.8437910999637,,,,,,,,,,,,,,,,,,,,,,,,,,,,,,,,,,,,,,,,,,,,,,,,,163.82634109992068,163.8437910999637,164.3397078999551,0.5138610999565572,165.12271369993687,165.10609369992744,,165.60600699996576,176.2374051999068,r,11.123924399958923,None,None,,,,,,,,,,,,,,,,,,,,,,,,,,,,,,,,,,,,,,,,,,,Ali,001,2024-02-04_21h45.24.361,M2_experiment1,2023.2.3,60.03608169425545,2024-02-04 21h45.38.806025 +0100,
47,ModifiedT,resources/new_sounds_2/M6root.wav,0.557210884353742,None,None,None,None,r,M,0,3,3,23,,,,,176.25493679998908,,,,,,,,,,,,,,,,,,,,,,,,,,,,,,,,,,,,,,,,,,,,,,,,,176.2381888999371,176.25493679998908,176.7522381999297,0.5144196000183001,177.3187555000186,177.30200479994528,1.0809306999435648,177.8018696999643,178.76977299991995,e,1.4647504000458866,None,None,,,,,,,,,,,,,,,,,,,,,,,,,,,,,,,,,,,,,,,,,,,Ali,001,2024-02-04_21h45.24.361,M2_experiment1,2023.2.3,60.03608169425545,2024-02-04 21h45.38.806025 +0100,
37,ModifiedT,resources/new_sounds_2/F4lot.wav,0.449274376417234,None,None,None,None,r,F,0,4,4,13,,,,,178.78823109995574,,,,,,,,,,,,,,,,,,,,,,,,,,,,,,,,,,,,,,,,,,,,,,,,,178.77055389992893,178.78823109995574,179.28464969992638,0.5144694000482559,179.7346326999832,179.7346326999832,0.9649099000962451,180.23439499991946,181.55202369997278,e,1.8017414999194443,None,None,,,,,,,,,,,,,,,,,,,,,,,,,,,,,,,,,,,,,,,,,,,Ali,001,2024-02-04_21h45.24.361,M2_experiment1,2023.2.3,60.03608169425545,2024-02-04 21h45.38.806025 +0100,
51,NotModifiedSH,resources/new_sounds_not_modified/M4mosh.wav,0.573267020202984,None,None,None,None,e,M,0,5,5,27,,,,,181.5709028999554,,,,,,,,,,,,,,,,,,,,,,,,,,,,,,,,,,,,,,,,,,,,,,,,,181.55281709996052,181.5709028999554,182.06711449997965,0.5146674000425264,182.65044939995278,182.63368999992963,1.0979959999676794,183.1334776999429,183.83474159997422,e,1.189598900033161,None,None,,,,,,,,,,,,,,,,,,,,,,,,,,,,,,,,,,,,,,,,,,,Ali,001,2024-02-04_21h45.24.361,M2_experiment1,2023.2.3,60.03608169425545,2024-02-04 21h45.38.806025 +0100,
27,ModifiedSH,resources/new_sounds_2/M4flesh.wav,0.722767978649223,None,None,None,None,r,M,0,6,6,3,,,,,183.85322829999495,,,,,,,,,,,,,,,,,,,,,,,,,,,,,,,,,,,,,,,,,,,,,,,,,183.8355283999117,183.85322829999495,184.35015099996235,0.5150252000894397,185.0828327999916,185.06621339998674,,185.5660482000094,190.91569019993767,r,5.841715199989267,None,None,,,,,,,,,,,,,,,,,,,,,,,,,,,,,,,,,,,,,,,,,,,Ali,001,2024-02-04_21h45.24.361,M2_experiment1,2023.2.3,60.03608169425545,2024-02-04 21h45.38.806025 +0100,
30,ModifiedT,resources/new_sounds_2/F3footer.wav,0.597777777777778,None,None,None,None,r,F,0,7,7,6,,,,,190.93434649996925,,,,,,,,,,,,,,,,,,,,,,,,,,,,,,,,,,,,,,,,,,,,,,,,,190.9165151999332,190.93434649996925,191.43068240000866,0.514543299912475,192.0304489999544,192.0138361999998,1.1143074999563396,192.51466220000293,194.864321299945,e,2.8396595999365672,None,None,,,,,,,,,,,,,,,,,,,,,,,,,,,,,,,,,,,,,,,,,,,Ali,001,2024-02-04_21h45.24.361,M2_experiment1,2023.2.3,60.03608169425545,2024-02-04 21h45.38.806025 +0100,
29,NotModifiedT,resources/new_sounds_2/M4getting.wav,0.612123590008089,None,None,None,None,e,M,0,8,8,5,,,,,194.88286779995542,,,,,,,,,,,,,,,,,,,,,,,,,,,,,,,,,,,,,,,,,,,,,,,,,194.86510529997759,194.88286779995542,195.3792369000148,0.5144964999053627,195.99584370001685,195.97913719993085,1.1311026000184938,196.47915769997053,197.03023509995546,e,1.0432851000223309,None,None,,,,,,,,,,,,,,,,,,,,,,,,,,,,,,,,,,,,,,,,,,,Ali,001,2024-02-04_21h45.24.361,M2_experiment1,2023.2.3,60.03608169425545,2024-02-04 21h45.38.806025 +0100,
28,ModifiedSH,resources/new_sounds_2/F3flushing.wav,0.687845804988662,None,None,None,None,r,F,0,9,9,4,,,,,197.04765979992226,,,,,,,,,,,,,,,,,,,,,,,,,,,,,,,,,,,,,,,,,,,,,,,,,197.03103169996757,197.04765979992226,197.5451911999844,0.5145288000348955,198.26056929992046,198.22832479991484,,198.7281401999062,199.22947119991295,e,0.9901274999137968,None,None,,,,,,,,,,,,,,,,,,,,,,,,,,,,,,,,,,,,,,,,,,,Ali,001,2024-02-04_21h45.24.361,M2_experiment1,2023.2.3,60.03608169425545,2024-02-04 21h45.38.806025 +0100,
54,NotModifiedSH,resources/new_sounds_not_modified/F5thrasher.wav,0.585496600933162,None,None,None,None,e,F,0,10,10,30,,,,,199.25831669999752,,,,,,,,,,,,,,,,,,,,,,,,,,,,,,,,,,,,,,,,,,,,,,,,,199.2302510999143,199.25831669999752,199.7444880999392,0.5146033000200987,200.34438949998002,200.32773269992322,1.114508100086823,200.8275839999551,201.4954202999361,e,1.159441800089553,None,None,,,,,,,,,,,,,,,,,,,,,,,,,,,,,,,,,,,,,,,,,,,Ali,001,2024-02-04_21h45.24.361,M2_experiment1,2023.2.3,60.03608169425545,2024-02-04 21h45.38.806025 +0100,
34,ModifiedSH,resources/new_sounds_2/M7mosh.wav,0.486031746031746,None,None,None,None,r,M,0,11,11,10,,,,,201.51260959997308,,,,,,,,,,,,,,,,,,,,,,,,,,,,,,,,,,,,,,,,,,,,,,,,,201.49621139990631,201.51260959997308,202.01055180002004,0.5147280000383034,202.51024410000537,202.4936365999747,1.0144122000783682,202.99343019991647,203.761456899927,e,1.2606735000154004,None,None,,,,,,,,,,,,,,,,,,,,,,,,,,,,,,,,,,,,,,,,,,,Ali,001,2024-02-04_21h45.24.361,M2_experiment1,2023.2.3,60.03608169425545,2024-02-04 21h45.38.806025 +0100,
50,NotModifiedSH,resources/new_sounds_not_modified/M3dish.wav,0.409302075267592,None,None,None,None,e,M,0,12,12,26,,,,,203.78030340000987,,,,,,,,,,,,,,,,,,,,,,,,,,,,,,,,,,,,,,,,,,,,,,,,,203.76223469991237,203.78030340000987,204.27636309992522,0.5145028999540955,204.69290379993618,204.6766204999294,0.9310408999444917,205.17616739997175,205.8773126999149,e,1.1837131000356749,None,None,,,,,,,,,,,,,,,,,,,,,,,,,,,,,,,,,,,,,,,,,,,Ali,001,2024-02-04_21h45.24.361,M2_experiment1,2023.2.3,60.03608169425545,2024-02-04 21h45.38.806025 +0100,
32,ModifiedT,resources/new_sounds_2/M2city.wav,0.658866213151928,None,None,None,None,r,M,0,13,13,8,,,,,205.8945992999943,,,,,,,,,,,,,,,,,,,,,,,,,,,,,,,,,,,,,,,,,,,,,,,,,205.87809010001365,205.8945992999943,206.3922272999771,0.5145112000172958,207.05879929999355,207.04208369995467,1.1810918999835849,207.54185599996708,208.74442709994037,r,1.6900466000661254,None,None,,,,,,,,,,,,,,,,,,,,,,,,,,,,,,,,,,,,,,,,,,,Ali,001,2024-02-04_21h45.24.361,M2_experiment1,2023.2.3,60.03608169425545,2024-02-04 21h45.38.806025 +0100,
39,ModifiedSH,resources/new_sounds_2/M7fresher.wav,0.497256235827664,None,None,None,None,r,M,0,14,14,15,,,,,208.7618309999816,,,,,,,,,,,,,,,,,,,,,,,,,,,,,,,,,,,,,,,,,,,,,,,,,208.74553509999532,208.7618309999816,209.25803149992134,0.5128994999686256,209.75775859993882,209.75775859993882,1.0130545999854803,210.25765409995802,211.42560800001957,e,1.6575314999790862,None,None,,,,,,,,,,,,,,,,,,,,,,,,,,,,,,,,,,,,,,,,,,,Ali,001,2024-02-04_21h45.24.361,M2_experiment1,2023.2.3,60.03608169425545,2024-02-04 21h45.38.806025 +0100,
53,NotModifiedSH,resources/new_sounds_not_modified/M6fresher.wav,0.558439616650624,None,None,None,None,e,M,0,15,15,29,,,,,211.4439697000198,,,,,,,,,,,,,,,,,,,,,,,,,,,,,,,,,,,,,,,,,,,,,,,,,211.4264127999777,211.4439697000198,211.94057839992456,0.5145535999909043,212.5068321999861,212.49043659993913,1.0808031000196934,212.9900679999264,213.3247168000089,e,0.8191494999919087,None,None,,,,,,,,,,,,,,,,,,,,,,,,,,,,,,,,,,,,,,,,,,,Ali,001,2024-02-04_21h45.24.361,M2_experiment1,2023.2.3,60.03608169425545,2024-02-04 21h45.38.806025 +0100,
42,NotModifiedT,resources/new_sounds_not_modified/F4feat.wav,0.478604920503187,None,None,None,None,e,F,0,16,16,18,,,,,213.34347119997256,,,,,,,,,,,,,,,,,,,,,,,,,,,,,,,,,,,,,,,,,,,,,,,,,213.3255014999304,213.34347119997256,213.83972019993234,0.5145987999858335,214.32304519996978,214.306353699998,0.9979340999852866,214.80619989999104,215.34085109992884,e,1.0285887999925762,None,None,,,,,,,,,,,,,,,,,,,,,,,,,,,,,,,,,,,,,,,,,,,Ali,001,2024-02-04_21h45.24.361,M2_experiment1,2023.2.3,60.03608169425545,2024-02-04 21h45.38.806025 +0100,
43,NotModifiedT,resources/new_sounds_not_modified/F2feat.wav,0.644364234737267,None,None,None,None,e,F,0,17,17,19,,,,,215.35939549992327,,,,,,,,,,,,,,,,,,,,,,,,,,,,,,,,,,,,,,,,,,,,,,,,,215.34162580000702,215.35939549992327,215.85580229992047,0.5145404000068083,216.50565329997335,216.48886979999952,1.1643875000299886,216.9886519999709,217.55685369996354,e,1.0579024999169633,None,None,,,,,,,,,,,,,,,,,,,,,,,,,,,,,,,,,,,,,,,,,,,Ali,001,2024-02-04_21h45.24.361,M2_experiment1,2023.2.3,60.03608169425545,2024-02-04 21h45.38.806025 +0100,
46,NotModifiedT,resources/new_sounds_not_modified/M6pet.wav,0.506976177381986,None,None,None,None,e,M,0,18,18,22,,,,,217.5739928999683,,,,,,,,,,,,,,,,,,,,,,,,,,,,,,,,,,,,,,,,,,,,,,,,,217.5576379999984,217.5739928999683,218.07170949992724,0.5144449999788776,218.58817769994494,218.57160029991064,1.0309104999760166,219.07137199991848,219.38969549990725,e,0.812177500105463,None,None,,,,,,,,,,,,,,,,,,,,,,,,,,,,,,,,,,,,,,,,,,,Ali,001,2024-02-04_21h45.24.361,M2_experiment1,2023.2.3,60.03608169425545,2024-02-04 21h45.38.806025 +0100,
49,NotModifiedT,resources/new_sounds_not_modified/M2lot.wav,0.466575772426751,None,None,None,None,e,M,0,19,19,25,,,,,219.40822889993433,,,,,,,,,,,,,,,,,,,,,,,,,,,,,,,,,,,,,,,,,,,,,,,,,219.39047139999457,219.40822889993433,219.90446569991764,0.5143608000362292,220.3710155999288,220.3710155999288,0.9813805000158027,220.87085489998572,221.1387448000023,e,0.754100100020878,None,None,,,,,,,,,,,,,,,,,,,,,,,,,,,,,,,,,,,,,,,,,,,Ali,001,2024-02-04_21h45.24.361,M2_experiment1,2023.2.3,60.03608169425545,2024-02-04 21h45.38.806025 +0100,
40,ModifiedSH,resources/new_sounds_2/F5fresher.wav,0.567437641723356,None,None,None,None,r,F,0,20,20,16,,,,,221.15733209997416,,,,,,,,,,,,,,,,,,,,,,,,,,,,,,,,,,,,,,,,,,,,,,,,,221.1395447999239,221.15733209997416,221.65383369999472,0.5146621000021696,222.2370831000153,222.2370831000153,,222.7202348000137,222.73836309998296,e,0.49548329995013773,None,None,,,,,,,,,,,,,,,,,,,,,,,,,,,,,,,,,,,,,,,,,,,Ali,001,2024-02-04_21h45.24.361,M2_experiment1,2023.2.3,60.03608169425545,2024-02-04 21h45.38.806025 +0100,
24,NotModifiedT,resources/new_sounds_not_modified/F1party.wav,0.63399526438517,None,None,None,None,e,F,0,21,21,0,,,,,222.75597800000105,,,,,,,,,,,,,,,,,,,,,,,,,,,,,,,,,,,,,,,,,,,,,,,,,222.73913849995006,222.75597800000105,223.25327979994472,0.5145073999883607,223.88645089999773,223.88645089999773,1.148108199937269,224.3861492999131,224.6044037999818,e,0.7009436999214813,None,None,,,,,,,,,,,,,,,,,,,,,,,,,,,,,,,,,,,,,,,,,,,Ali,001,2024-02-04_21h45.24.361,M2_experiment1,2023.2.3,60.03608169425545,2024-02-04 21h45.38.806025 +0100,
44,ModifiedSH,resources/new_sounds_2/F2thrasher.wav,0.510249433106576,None,None,None,None,r,F,0,22,22,20,,,,,224.62307949992828,,,,,,,,,,,,,,,,,,,,,,,,,,,,,,,,,,,,,,,,,,,,,,,,,224.6051773999352,224.62307949992828,225.1192582999356,0.5144458999857306,225.63580159994308,225.61915179993957,1.0309847999596968,226.11899689992424,226.37037099990994,e,0.7418256000382826,None,None,,,,,,,,,,,,,,,,,,,,,,,,,,,,,,,,,,,,,,,,,,,Ali,001,2024-02-04_21h45.24.361,M2_experiment1,2023.2.3,60.03608169425545,2024-02-04 21h45.38.806025 +0100,
36,NotModifiedT,resources/new_sounds_not_modified/F4lot.wav,0.386965569882676,None,None,None,None,e,F,0,23,23,12,,,,,226.39943089999724,,,,,,,,,,,,,,,,,,,,,,,,,,,,,,,,,,,,,,,,,,,,,,,,,226.3711663999129,226.39943089999724,226.88539800001308,0.5146162000019103,227.28524019999895,227.26852769998368,0.9144559000851586,227.76841059990693,227.9033245999599,e,0.6290047999937087,None,None,,,,,,,,,,,,,,,,,,,,,,,,,,,,,,,,,,,,,,,,,,,Ali,001,2024-02-04_21h45.24.361,M2_experiment1,2023.2.3,60.03608169425545,2024-02-04 21h45.38.806025 +0100,
31,NotModifiedT,resources/new_sounds_not_modified/F3footer.wav,0.573733808005514,None,None,None,None,e,F,0,24,24,7,,,,,227.92191809997894,,,,,,,,,,,,,,,,,,,,,,,,,,,,,,,,,,,,,,,,,,,,,,,,,227.90410069993231,227.92191809997894,228.4182152999565,0.5144780999980867,229.00144889997318,228.9846895999508,1.0977088999934494,229.48458719998598,229.50362279999536,e,0.5053870000410825,None,None,,,,,,,,,,,,,,,,,,,,,,,,,,,,,,,,,,,,,,,,,,,Ali,001,2024-02-04_21h45.24.361,M2_experiment1,2023.2.3,60.03608169425545,2024-02-04 21h45.38.806025 +0100,
38,ModifiedT,resources/new_sounds_2/M7butter.wav,0.44172335600907,None,None,None,None,r,M,0,25,25,14,,,,,229.5214884999441,,,,,,,,,,,,,,,,,,,,,,,,,,,,,,,,,,,,,,,,,,,,,,,,,229.50493549997918,229.5214884999441,230.01764289999846,0.5133160999976099,230.4675433000084,230.45085839997046,0.9632106000790372,230.95070940000005,231.08552209998015,e,0.6254438000032678,None,None,,,,,,,,,,,,,,,,,,,,,,,,,,,,,,,,,,,,,,,,,,,Ali,001,2024-02-04_21h45.24.361,M2_experiment1,2023.2.3,60.03608169425545,2024-02-04 21h45.38.806025 +0100,
52,NotModifiedSH,resources/new_sounds_not_modified/M4swoosh.wav,0.736227123531279,None,None,None,None,e,M,0,26,26,28,,,,,231.10161739995237,,,,,,,,,,,,,,,,,,,,,,,,,,,,,,,,,,,,,,,,,,,,,,,,,231.08631249994505,231.10161739995237,231.60044770000968,0.5145217999815941,232.35863339994103,232.3335931999609,,232.83356980001554,234.30125369993038,r,1.95901520003099,None,None,,,,,,,,,,,,,,,,,,,,,,,,,,,,,,,,,,,,,,,,,,,Ali,001,2024-02-04_21h45.24.361,M2_experiment1,2023.2.3,60.03608169425545,2024-02-04 21h45.38.806025 +0100,
41,ModifiedT,resources/new_sounds_2/F4utter.wav,0.53952380952381,None,None,None,None,r,F,0,27,27,17,,,,,234.3195137999719,,,,,,,,,,,,,,,,,,,,,,,,,,,,,,,,,,,,,,,,,,,,,,,,,234.30201579991262,234.3195137999719,234.8160724999616,0.5144156999886036,235.36597059993073,235.34918019990437,1.0643119999440387,235.84917830000632,237.083560799947,e,1.7317562000826001,None,None,,,,,,,,,,,,,,,,,,,,,,,,,,,,,,,,,,,,,,,,,,,Ali,001,2024-02-04_21h45.24.361,M2_experiment1,2023.2.3,60.03608169425545,2024-02-04 21h45.38.806025 +0100,
33,ModifiedT,resources/new_sounds_2/M7fatter.wav,0.644739229024943,None,None,None,None,r,M,0,28,28,9,,,,,237.10093179997057,,,,,,,,,,,,,,,,,,,,,,,,,,,,,,,,,,,,,,,,,,,,,,,,,237.08435179991648,237.10093179997057,237.59849249990657,0.5145094000035897,238.24849769996945,238.23158599995077,1.164511700044386,238.73146669997368,239.14959879999515,e,0.9147124000592157,None,None,,,,,,,,,,,,,,,,,,,,,,,,,,,,,,,,,,,,,,,,,,,Ali,001,2024-02-04_21h45.24.361,M2_experiment1,2023.2.3,60.03608169425545,2024-02-04 21h45.38.806025 +0100,
26,ModifiedSH,resources/new_sounds_2/F2fleshing.wav,0.620294784580499,None,None,None,None,r,F,0,29,29,2,,,,,239.1681073999498,,,,,,,,,,,,,,,,,,,,,,,,,,,,,,,,,,,,,,,,,,,,,,,,,239.15037259995006,239.1681073999498,239.66453710000496,0.5145245000021532,240.29758709995076,240.28091490000952,1.1475746999494731,240.7808615999529,241.58207219990436,e,1.298533400055021,None,None,,,,,,,,,,,,,,,,,,,,,,,,,,,,,,,,,,,,,,,,,,,Ali,001,2024-02-04_21h45.24.361,M2_experiment1,2023.2.3,60.03608169425545,2024-02-04 21h45.38.806025 +0100,
45,NotModifiedSH,resources/new_sounds_not_modified/F3mosh.wav,0.628649263052651,None,None,None,None,e,F,0,30,30,21,,,,,241.5983154999558,,,,,,,,,,,,,,,,,,,,,,,,,,,,,,,,,,,,,,,,,,,,,,,,,241.58292169997003,241.5983154999558,242.09708330000285,0.514515700051561,242.73011050000787,242.71351279993542,1.147543799947016,243.21329159999732,243.71469139994588,e,0.9976230000611395,None,None,,,,,,,,,,,,,,,,,,,,,,,,,,,,,,,,,,,,,,,,,,,Ali,001,2024-02-04_21h45.24.361,M2_experiment1,2023.2.3,60.03608169425545,2024-02-04 21h45.38.806025 +0100,
,,,,,,,,,,,,,,,,,,,,,,,,,,,,,,,,,,,,,,,,,,,,,,,,,,,,,,,,,,,,,,,,,,,,,,,,,,,,,,,,243.71526859991718,243.73100629996043,243.73100629996043,254.46071789995767,space,10.718039999948815,None,,,,,,,,,,,,,,,,,,,,,,,,,,,,,,,,,,,,Ali,001,2024-02-04_21h45.24.361,M2_experiment1,2023.2.3,60.03608169425545,2024-02-04 21h45.38.806025 +0100,
,,,,,,,,,,,,,,,,,,,,,,,,,,,,,,,,,,,,,,,,,,,,,,,,,,,,,,,,,,,,,,,,,,,,,,,,,,,,,,,,,,,,,,,254.46076449996326,254.4770849000197,254.4770849000197,275.9701656999532,space,21.476865200093016,None,,,,,,,,,,,,,,,,,,,,,,,,,,,,,Ali,001,2024-02-04_21h45.24.361,M2_experiment1,2023.2.3,60.03608169425545,2024-02-04 21h45.38.806025 +0100,
2,ModifiedSh,resources/new_sounds_not_modified/F2fish.wav,0.528250066930233,resources/new_sounds_2/F1fit.wav,0.423218058079413,resources/new_sounds_not_modified/F5fit.wav,0.2975247836995,3,F,,,,,0,0,0,1,276.0186823999975,,,,,,,,,,,,,,,,,,,,,,,,,,,,,,,,,,,,,,,,,,,,,,,,,,,,,,,,,,,,,,,,,,,,,,,,,,,,275.99972169997636,276.0186823999975,276.4854009000119,0.5152902000118047,277.01859679992776,1.0484841000288725,277.50195429997984,277.5018508499837,277.9519290999742,277.9519290999742,278.43472479993943,278.43493224998235,278.7418006999651,278.7418006999651,278.7418006999651,279.2345826999517,285.0511532999808,t,6.297175399959087,None,None,0,,,,,,,Ali,001,2024-02-04_21h45.24.361,M2_experiment1,2023.2.3,60.03608169425545,2024-02-04 21h45.38.806025 +0100,
6,ModifiedT,resources/new_sounds_not_modified/M1met.wav,0.532038259057699,resources/new_sounds_2/M3met.wav,0.558503401360544,resources/new_sounds_not_modified/M5mesh.wav,0.5032130872900709,1,M,,,,,0,1,1,5,285.071584399906,,,,,,,,,,,,,,,,,,,,,,,,,,,,,,,,,,,,,,,,,,,,,,,,,,,,,,,,,,,,,,,,,,,,,,,,,,,,285.0522886000108,285.071584399906,285.56559989997186,0.513712799991481,286.09897409996483,20.504964400082827,286.59870749991387,286.59872255000516,287.1712832999183,305.57373299996834,287.64831389999017,287.6483798500034,288.16810929996427,305.57373299996834,288.14837579999585,288.64810210000724,307.6581628000131,t,19.502041499945335,None,p,1,17.253568300046027,None,,,,,Ali,001,2024-02-04_21h45.24.361,M2_experiment1,2023.2.3,60.03608169425545,2024-02-04 21h45.38.806025 +0100,
13,ModifiedT,resources/new_sounds_not_modified/F1fish.wav,0.519196656146427,resources/new_sounds_not_modified/F4fit.wav,0.297524783699501,resources/new_sounds_2/F2fit.wav,0.443741496598639,2,F,,,,,0,2,2,12,307.677527599968,,,,,,,,,,,,,,,,,,,,,,,,,,,,,,,,,,,,,,,,,,,,,,,,,,,,,,,,,,,,,,,,,,,,,,,,,,,,307.6593598999316,307.677527599968,308.1724552999949,0.513494799961336,308.72099069994874,13.110139600001276,309.1888611000031,309.18885914996497,309.4985806000186,320.78516159998253,309.98858609993476,309.9886150500155,310.44542459992226,320.78516159998253,310.421812399989,310.92209659994114,322.1534768999554,t,11.726663199951872,None,p,1,10.187085699988529,None,,,,,Ali,001,2024-02-04_21h45.24.361,M2_experiment1,2023.2.3,60.03608169425545,2024-02-04 21h45.38.806025 +0100,
5,ModifiedT,resources/new_sounds_not_modified/F4met.wav,0.44494520825283956,resources/new_sounds_2/F2met.wav,0.634104308390023,resources/new_sounds_not_modified/F1mesh.wav,0.5571319490698841,1,F,,,,,0,3,3,4,322.1721033999929,,,,,,,,,,,,,,,,,,,,,,,,,,,,,,,,,,,,,,,,,,,,,,,,,,,,,,,,,,,,,,,,,,,,,,,,,,,,322.1544649999123,322.1721033999929,322.66838229994755,0.5142902000807226,323.11754699994344,0.9634542000712827,323.600745899952,323.60130254997637,324.25558419991285,324.25558419991285,324.73388820001855,324.73387964993015,325.3014861999545,325.3014861999545,325.3014861999545,325.79990009998437,328.1519089000067,r,2.842004799982533,None,None,0,,,,,,,Ali,001,2024-02-04_21h45.24.361,M2_experiment1,2023.2.3,60.03608169425545,2024-02-04 21h45.38.806025 +0100,
20,ModifiedSH,resources/new_sounds_2/F2push.wav,0.418027210884354,resources/new_sounds_not_modified/F4push.wav,0.436144678520506,resources/new_sounds_not_modified/F3put.wav,0.437781204290985,2,F,,,,,0,4,4,19,328.1705267999787,,,,,,,,,,,,,,,,,,,,,,,,,,,,,,,,,,,,,,,,,,,,,,,,,,,,,,,,,,,,,,,,,,,,,,,,,,,,328.15264989994466,328.1705267999787,328.6665256000124,0.514234299887903,329.10982819995843,,329.5837910999544,329.5837729500257,330.05101629998535,,330.5172846999485,330.517711049912,330.97070269996766,330.97070269996766,330.95044599997345,331.4501844999613,338.94986049993895,e,7.993217000039294,None,None,0,,,,,,,Ali,001,2024-02-04_21h45.24.361,M2_experiment1,2023.2.3,60.03608169425545,2024-02-04 21h45.38.806025 +0100,
22,ModifiedSH,resources/new_sounds_not_modified/F1mash.wav,0.601753675244161,resources/new_sounds_2/F3mash.wav,0.42437641723356,resources/new_sounds_not_modified/F4mat.wav,0.401181209050264,3,F,,,,,0,5,5,21,338.96912289992906,,,,,,,,,,,,,,,,,,,,,,,,,,,,,,,,,,,,,,,,,,,,,,,,,,,,,,,,,,,,,,,,,,,,,,,,,,,,338.95065839996096,338.96912289992906,339.4642970999703,0.5140153000829741,340.0809091000119,1.1306255999952555,340.5645415999461,340.56413654998175,341.0003412999213,341.0003412999213,341.48026400001254,341.48040315000105,341.8972403999651,341.8972403999651,341.8803146999562,342.3800459000049,352.1455050999066,r,10.251955799991265,None,None,0,,,,,,,Ali,001,2024-02-04_21h45.24.361,M2_experiment1,2023.2.3,60.03608169425545,2024-02-04 21h45.38.806025 +0100,
15,ModifiedSH,resources/new_sounds_not_modified/M2fish.wav,0.602031419699607,resources/new_sounds_not_modified/M5fit.wav,0.593107043618346,resources/new_sounds_2/M1fish.wav,0.512562358276644,1,M,,,,,0,6,6,14,352.1649928999832,,,,,,,,,,,,,,,,,,,,,,,,,,,,,,,,,,,,,,,,,,,,,,,,,,,,,,,,,,,,,,,,,,,,,,,,,,,,352.1463186999317,352.1649928999832,352.659917699988,0.5139756000135094,353.2762780999765,1.1303348999936134,353.759476599982,353.75950124991357,354.36544739990495,354.36544739990495,354.8424426999409,354.84242335000306,355.3721798999468,355.3721798999468,355.3721798999468,355.8588765999302,357.4285842999816,e,2.047607299988158,None,None,0,,,,,,,Ali,001,2024-02-04_21h45.24.361,M2_experiment1,2023.2.3,60.03608169425545,2024-02-04 21h45.38.806025 +0100,
18,ModifiedT,resources/new_sounds_2/M2put.wav,0.532199546485261,resources/new_sounds_not_modified/M7put.wav,0.410382098763918,resources/new_sounds_not_modified/M5push.wav,0.499025816019625,2,M,,,,,0,7,7,17,357.4518136999104,,,,,,,,,,,,,,,,,,,,,,,,,,,,,,,,,,,,,,,,,,,,,,,,,,,,,,,,,,,,,,,,,,,,,,,,,,,,357.429728899966,357.4518136999104,357.94275849999394,0.5136162000708282,358.4746610999573,1.0454742000438273,358.9743471000111,358.97451995002336,359.40257589996327,359.40257589996327,359.8742059000069,359.8740264500142,360.38194409990683,360.38194409990683,360.38194409990683,360.8737865999574,365.2242549000075,r,4.8394375999923795,None,None,0,,,,,,,Ali,001,2024-02-04_21h45.24.361,M2_experiment1,2023.2.3,60.03608169425545,2024-02-04 21h45.38.806025 +0100,
16,ModifiedT,resources/new_sounds_2/M2fit.wav,0.646553287981859,resources/new_sounds_not_modified/M4fit.wav,0.508424667314028,resources/new_sounds_not_modified/M5fish.wav,0.451129071842058,2,M,,,,,0,8,8,15,365.242476799991,,,,,,,,,,,,,,,,,,,,,,,,,,,,,,,,,,,,,,,,,,,,,,,,,,,,,,,,,,,,,,,,,,,,,,,,,,,,365.22504669998307,365.242476799991,365.73875329992734,0.5140786999836564,366.38873299991246,1.1640608999878168,366.8717717999825,366.871734050021,367.3930316999322,367.3930316999322,367.8881500000134,367.88808184993684,368.3712514999788,,368.3510714999866,368.8378977999091,371.3057091999799,e,2.9484622000018135,None,None,0,,,,,,,Ali,001,2024-02-04_21h45.24.361,M2_experiment1,2023.2.3,60.03608169425545,2024-02-04 21h45.38.806025 +0100,
17,ModifiedT,resources/new_sounds_2/M2bosh.wav,0.387165532879819,resources/new_sounds_not_modified/M6bot.wav,0.501070841911371,resources/new_sounds_not_modified/M5bosh.wav,0.597358038485993,2,M,,,,,0,9,9,16,371.3251060999464,,,,,,,,,,,,,,,,,,,,,,,,,,,,,,,,,,,,,,,,,,,,,,,,,,,,,,,,,,,,,,,,,,,,,,,,,,,,371.3065226000035,371.3251060999464,371.8201015999075,0.5139748000074178,372.21995890000835,0.9138259999454021,372.70310229994357,372.7031989499577,373.21961039991584,373.21961039991584,373.7027484999271,373.7028569499147,374.3100621999474,374.3100621999474,374.3100621999474,374.8024368999759,376.4705933999503,e,2.151028999942355,None,None,0,,,,,,,Ali,001,2024-02-04_21h45.24.361,M2_experiment1,2023.2.3,60.03608169425545,2024-02-04 21h45.38.806025 +0100,
4,ModifiedT,resources/new_sounds_not_modified/M4mat.wav,0.4451593985921889,resources/new_sounds_2/M3mat.wav,0.494308390022676,resources/new_sounds_not_modified/M2mash.wav,0.7358947371573947,1,M,,,,,0,10,10,3,376.489996099961,,,,,,,,,,,,,,,,,,,,,,,,,,,,,,,,,,,,,,,,,,,,,,,,,,,,,,,,,,,,,,,,,,,,,,,,,,,,376.47140199993737,376.489996099961,376.9849906999152,0.5139618000248447,377.43497239996213,0.9639413000550121,377.917996599921,377.9180667499662,378.42686439992394,378.42686439992394,378.9176938999444,378.9177182499901,379.66770879994147,379.66770879994147,379.65087199991103,380.1507011000067,384.3012332000071,t,4.647811000002548,None,None,0,,,,,,,Ali,001,2024-02-04_21h45.24.361,M2_experiment1,2023.2.3,60.03608169425545,2024-02-04 21h45.38.806025 +0100,
3,ModifiedT,resources/new_sounds_2/F5mat.wav,0.565396825396825,resources/new_sounds_not_modified/F4mash.wav,0.38066522534541036,resources/new_sounds_not_modified/F2mat.wav,0.5007174554648515,3,F,,,,,0,11,11,2,384.3208241999382,,,,,,,,,,,,,,,,,,,,,,,,,,,,,,,,,,,,,,,,,,,,,,,,,,,,,,,,,,,,,,,,,,,,,,,,,,,,384.30204470001627,384.3208241999382,384.8157211999642,0.5140503000002354,385.38213679997716,1.0804625999880955,385.8820509999059,385.8820101499208,386.2724340999266,386.2724340999266,386.74846219993196,386.7484841499594,387.2626865999773,387.2626865999773,387.2626865999773,387.7481616999721,389.4830222999444,r,2.2154898999724537,None,None,0,,,,,,,Ali,001,2024-02-04_21h45.24.361,M2_experiment1,2023.2.3,60.03608169425545,2024-02-04 21h45.38.806025 +0100,
10,ModifiedT,resources/new_sounds_not_modified/M2fit.wav,0.423218058079414,resources/new_sounds_not_modified/M5fish.wav,0.451129071842058,resources/new_sounds_2/M4fit.wav,0.597210884353741,1,M,,,,,0,12,12,9,389.5021625999361,,,,,,,,,,,,,,,,,,,,,,,,,,,,,,,,,,,,,,,,,,,,,,,,,,,,,,,,,,,,,,,,,,,,,,,,,,,,389.48383179993834,389.5021625999361,389.99734789994545,0.5138976000016555,390.430453900015,0.9470028999494389,390.9136388999177,390.9137059499393,391.3969553000061,,391.86336780001875,391.863477650017,392.4713486999972,392.4713486999972,392.4713486999972,392.9630514999153,395.5307844999479,e,3.0441452000522986,None,None,0,,,,,,,Ali,001,2024-02-04_21h45.24.361,M2_experiment1,2023.2.3,60.03608169425545,2024-02-04 21h45.38.806025 +0100,
14,ModifiedSH,resources/new_sounds_not_modified/F2bosh.wav,0.494392229081527,resources/new_sounds_not_modified/F5bot.wav,0.485673207115724,resources/new_sounds_2/F1bosh.wav,0.520634920634921,1,F,,,,,0,13,13,13,395.5504981999984,,,,,,,,,,,,,,,,,,,,,,,,,,,,,,,,,,,,,,,,,,,,,,,,,,,,,,,,,,,,,,,,,,,,,,,,,,,,395.5316440999741,395.5504981999984,396.0454025999643,0.5141570999985561,396.54520089994185,1.0139530999585986,397.02849049994256,397.02825644999973,397.5447993999114,,398.01119109999854,398.0113461499917,398.5532796999905,398.5532796999905,398.5532796999905,399.0443230000092,401.9115828999784,r,3.3414654000662267,None,None,0,,,,,,,Ali,001,2024-02-04_21h45.24.361,M2_experiment1,2023.2.3,60.03608169425545,2024-02-04 21h45.38.806025 +0100,
9,ModifiedSH,resources/new_sounds_not_modified/M4bot.wav,0.453615769026229,resources/new_sounds_not_modified/M3bosh.wav,0.524217377306996,resources/new_sounds_2/M2bosh.wav,0.387165532879819,2,M,,,,,0,14,14,8,401.93081259995233,,,,,,,,,,,,,,,,,,,,,,,,,,,,,,,,,,,,,,,,,,,,,,,,,,,,,,,,,,,,,,,,,,,,,,,,,,,,401.91238859994337,401.93081259995233,402.42661419999786,0.5146064999280497,402.90577409998514,,403.3761383999372,403.37637234994907,403.91693239996675,403.91693239996675,404.3927682999056,404.3924702499411,404.8091994000133,,404.8091994000133,405.2923299999675,407.076900199987,e,2.258392299991101,None,None,0,,,,,,,Ali,001,2024-02-04_21h45.24.361,M2_experiment1,2023.2.3,60.03608169425545,2024-02-04 21h45.38.806025 +0100,
8,ModifiedSH,resources/new_sounds_not_modified/M3bot.wav,0.368685295497059,resources/new_sounds_not_modified/M1bosh.wav,0.5055628425466665,resources/new_sounds_2/M5bosh.wav,0.4857823129251701,2,M,,,,,0,15,15,7,407.09648639999796,,,,,,,,,,,,,,,,,,,,,,,,,,,,,,,,,,,,,,,,,,,,,,,,,,,,,,,,,,,,,,,,,,,,,,,,,,,,407.0777024999261,407.09648639999796,407.59145730000455,0.5141445999033749,407.99151419999544,69.38876389991492,408.4577677999623,408.45781264993127,408.9786568999989,476.4828549999511,409.4574650999857,409.45756415001813,409.96061029995326,476.4828549999511,409.94058960000984,410.4403916000156,524.3875237000175,e,114.43758159992285,None,p,3,66.3822763999924,None,,,,,Ali,001,2024-02-04_21h45.24.361,M2_experiment1,2023.2.3,60.03608169425545,2024-02-04 21h45.38.806025 +0100,
12,ModifiedSH,resources/new_sounds_not_modified/F4bot.wav,0.390471530438234,resources/new_sounds_not_modified/F3bosh.wav,0.505513996768869,resources/new_sounds_2/F2bosh.wav,0.423673469387755,2,F,,,,,0,16,16,11,524.4069362999871,,,,,,,,,,,,,,,,,,,,,,,,,,,,,,,,,,,,,,,,,,,,,,,,,,,,,,,,,,,,,,,,,,,,,,,,,,,,524.3885091999546,524.4069362999871,524.9020003000041,0.5138456999557093,525.3018931999104,67.8557949999813,525.7849504000042,525.7850767500116,526.3044793999288,592.2605023999931,526.7846766000148,526.7847546500037,527.234469799907,592.2605023999931,527.234469799907,527.7178298999788,595.5613185999682,e,68.31236039998475,None,p,2,64.8880137000233,None,,,,,Ali,001,2024-02-04_21h45.24.361,M2_experiment1,2023.2.3,60.03608169425545,2024-02-04 21h45.38.806025 +0100,
21,ModifiedSH,resources/new_sounds_not_modified/F5fish.wav,0.478583202882902,resources/new_sounds_2/F4fish.wav,0.366258503401361,resources/new_sounds_not_modified/F2fit.wav,0.374261916532497,3,F,,,,,0,17,17,20,595.5784586999798,,,,,,,,,,,,,,,,,,,,,,,,,,,,,,,,,,,,,,,,,,,,,,,,,,,,,,,,,,,,,,,,,,,,,,,,,,,,595.5622793999501,595.5784586999798,596.0757547999965,0.5138477000873536,596.5597476999974,0.9978636000305414,597.0423410999356,597.0423293499392,597.4182530000107,597.4182530000107,597.9091516999761,597.9092129499535,598.2970175999217,598.2970175999217,598.2970175999217,598.7919010999613,600.9111202999484,t,2.6047499000560492,None,None,0,,,,,,,Ali,001,2024-02-04_21h45.24.361,M2_experiment1,2023.2.3,60.03608169425545,2024-02-04 21h45.38.806025 +0100,
7,ModifiedSH,resources/new_sounds_2/M1bosh.wav,0.4574829931972789,resources/new_sounds_not_modified/M2bot.wav,0.415863975908209,resources/new_sounds_not_modified/M4bosh.wav,0.4533657452807347,3,M,,,,,0,18,18,6,600.9300199999707,,,,,,,,,,,,,,,,,,,,,,,,,,,,,,,,,,,,,,,,,,,,,,,,,,,,,,,,,,,,,,,,,,,,,,,,,,,,600.9118874999695,600.9300199999707,601.4263277999125,0.514840199961327,601.892812200007,0.9812917000381276,602.375962399994,602.3759718499263,602.8057374999626,602.8057374999626,603.2924676999683,603.2922985499375,603.7594635999994,603.7594635999994,603.7421826999635,604.2419644999318,605.4271252999315,r,1.6768367000622675,None,None,0,,,,,,,Ali,001,2024-02-04_21h45.24.361,M2_experiment1,2023.2.3,60.03608169425545,2024-02-04 21h45.38.806025 +0100,
19,ModifiedT,resources/new_sounds_2/F2put.wav,0.521360544217687,resources/new_sounds_not_modified/F4push.wav,0.436144678520506,resources/new_sounds_not_modified/F5put.wav,0.363522850118329,2,F,,,,,0,19,19,18,605.4458071999252,,,,,,,,,,,,,,,,,,,,,,,,,,,,,,,,,,,,,,,,,,,,,,,,,,,,,,,,,,,,,,,,,,,,,,,,,,,,605.4279199999291,605.4458071999252,605.9414562999737,0.5139142000116408,606.4746750999475,1.0471318999771029,606.957704499946,606.9578818499925,607.4077247999376,607.4077247999376,607.8909931000089,607.8908325499273,608.2703319999855,608.2703319999855,608.2703319999855,608.7572328000097,615.390441800002,e,7.1155510999960825,None,None,0,,,,,,,Ali,001,2024-02-04_21h45.24.361,M2_experiment1,2023.2.3,60.03608169425545,2024-02-04 21h45.38.806025 +0100,
11,ModifiedSH,resources/new_sounds_not_modified/M1fish.wav,0.569506825661794,resources/new_sounds_2/M7fit.wav,0.485691609977324,resources/new_sounds_not_modified/M3fit.wav,0.479334255844424,3,M,,,,,0,20,20,10,615.408455299912,,,,,,,,,,,,,,,,,,,,,,,,,,,,,,,,,,,,,,,,,,,,,,,,,,,,,,,,,,,,,,,,,,,,,,,,,,,,615.3912569999229,615.408455299912,615.9046973999357,0.5138125000521541,616.5022572999587,,616.9711413999321,616.971181849984,617.4788416000083,617.4788416000083,617.954089100007,617.9542870499776,618.4429269999964,618.4429269999964,618.4429269999964,618.937155899941,620.8548979000188,e,2.395177499973215,None,None,0,,,,,,,Ali,001,2024-02-04_21h45.24.361,M2_experiment1,2023.2.3,60.03608169425545,2024-02-04 21h45.38.806025 +0100,
1,ModifiedT,resources/new_sounds_not_modified/F2fit.wav,0.374261916532496,resources/new_sounds_not_modified/F5fish.wav,0.478583202882902,resources/new_sounds_2/F4fit.wav,0.41736473916697,1,F,,,,,0,21,21,0,620.8731425999431,,,,,,,,,,,,,,,,,,,,,,,,,,,,,,,,,,,,,,,,,,,,,,,,,,,,,,,,,,,,,,,,,,,,,,,,,,,,620.8557193999877,620.8731425999431,621.3697335999459,0.5144109000684693,621.7673018999631,12.874897900037467,622.2360547999851,622.2360615500132,622.7310364999576,633.7474415999604,623.2190312999301,623.2189920499571,623.6354391999776,633.7474415999604,623.6354391999776,624.1354392999783,637.2639723999891,t,13.618127999943681,None,p,2,10.022098600049503,None,,,,,Ali,001,2024-02-04_21h45.24.361,M2_experiment1,2023.2.3,60.03608169425545,2024-02-04 21h45.38.806025 +0100,
,,,,,,,,,,,,,,,,,,,,,,,,,,,,,,,,,,,,,,,,,,,,,,,,,,,,,,,,,,,,,,,,,,,,,,,,,,,,,,,,,,,,,,,,,,,,,,,,,,,,,,,,,,,,,,,,,,,,,,637.264810099965,637.2788470999803,640.2799401999218,640.2639362999471,,,,,,,,
