ItemNb,Condition,Sound1,DurationSound1,Sound2,DurationSound2,Sound3,DurationSound3,ExpectedKey,Condition2,trials_task3.thisRepN,trials_task3.thisTrialN,trials_task3.thisN,trials_task3.thisIndex,trials_task1.thisRepN,trials_task1.thisTrialN,trials_task1.thisN,trials_task1.thisIndex,thisRow.t,notes,Welcome.started,textWelcomeMessage.started,keyWelcome.started,Welcome.stopped,keyWelcome.keys,keyWelcome.rt,keyWelcome.duration,Welcome_2.started,textWelcome2.started,key_resp_5.started,Welcome_2.stopped,key_resp_5.keys,key_resp_5.rt,key_resp_5.duration,Welcome_3.started,textWelcome3.started,key_resp_6.started,Welcome_3.stopped,key_resp_6.keys,key_resp_6.rt,key_resp_6.duration,blank.started,blank1.started,blank1.stopped,blank.stopped,volume_explanation.started,text_volume.started,key_resp_8.started,volume_explanation.stopped,key_resp_8.keys,key_resp_8.rt,key_resp_8.duration,volume.started,text_2.started,key_resp_7.started,sound_testvolume.started,volume.stopped,key_resp_7.keys,key_resp_7.rt,key_resp_7.duration,explanation.started,text.started,key_info_oddity.started,explanation.stopped,key_info_oddity.keys,key_info_oddity.rt,key_info_oddity.duration,task3.started,key_replay3.started,text_recording1_3.started,sound1_3.started,text_recording1_3.stopped,key_resp_question3.started,text_questiontask3.started,task3.stopped,key_resp_question3.keys,key_resp_question3.rt,key_resp_question3.duration,key_replay3.keys,sound1_3.stopped,explanation_3.started,text_4.started,key_resp_3.started,explanation_3.stopped,key_resp_3.keys,key_resp_3.rt,key_resp_3.duration,explanation_1.started,text_explanation_1.started,key_resp.started,explanation_1.stopped,key_resp.keys,key_resp.rt,key_resp.duration,task1.started,key_replay1.started,text_recording1.started,sound1.started,text_recording1.stopped,sound1.stopped,text_recording2.started,sound2.started,text_recording2.stopped,sound2.stopped,text_recording3.started,sound3.started,key_resp_question1.started,text_recording3.stopped,sound3.stopped,text_question1.started,task1.stopped,key_resp_question1.keys,key_resp_question1.rt,key_resp_question1.duration,key_replay1.keys,replay_count,Bye.started,text_6.started,Bye.stopped,participant,session,date,expName,psychopyVersion,frameRate,expStart,
,,,,,,,,,,,,,,,,,,,,0.010641900007613003,0.0338968998985365,0.0338968998985365,10.284962099976838,space,10.23592310003005,None,,,,,,,,,,,,,,,,,,,,,,,,,,,,,,,,,,,,,,,,,,,,,,,,,,,,,,,,,,,,,,,,,,,,,,,,,,,,,,,,,,,,,,,,,,,,,Balbir,001,2024-02-04_21h11.10.176,M2_experiment1,2023.2.3,59.711260228046754,2024-02-04 21h11.23.843654 +0100,
,,,,,,,,,,,,,,,,,,,,,,,,,,,10.284999799914658,10.30047429993283,10.30047429993283,15.133312999969348,space,4.822069799993187,None,,,,,,,,,,,,,,,,,,,,,,,,,,,,,,,,,,,,,,,,,,,,,,,,,,,,,,,,,,,,,,,,,,,,,,,,,,,,,,,,,,,,,,Balbir,001,2024-02-04_21h11.10.176,M2_experiment1,2023.2.3,59.711260228046754,2024-02-04 21h11.23.843654 +0100,
,,,,,,,,,,,,,,,,,,,,,,,,,,,,,,,,,,15.133350699907169,15.149689699988812,15.149689699988812,37.57590119994711,space,22.418080399977043,None,,,,,,,,,,,,,,,,,,,,,,,,,,,,,,,,,,,,,,,,,,,,,,,,,,,,,,,,,,,,,,,,,,,,,,,,,,,,,,,Balbir,001,2024-02-04_21h11.10.176,M2_experiment1,2023.2.3,59.711260228046754,2024-02-04 21h11.23.843654 +0100,
,,,,,,,,,,,,,,,,,,,,,,,,,,,,,,,,,,,,,,,,,37.575940100010484,37.5912956999382,38.59154809999745,38.575468299910426,38.57548819994554,38.59154809999745,38.59154809999745,49.338876299909316,space,10.730639000074007,None,,,,,,,,,,,,,,,,,,,,,,,,,,,,,,,,,,,,,,,,,,,,,,,,,,,,,,,,,,,,,,,,,,,,Balbir,001,2024-02-04_21h11.10.176,M2_experiment1,2023.2.3,59.711260228046754,2024-02-04 21h11.23.843654 +0100,
,,,,,,,,,,,,,,,,,,,,,,,,,,,,,,,,,,,,,,,,,,,,,,,,,,,,49.33891649998259,49.36800199991558,50.3542596999323,50.35420691996114,62.48528589995112,space,12.118453299975954,None,,,,,,,,,,,,,,,,,,,,,,,,,,,,,,,,,,,,,,,,,,,,,,,,,,,,,,,,,,,,Balbir,001,2024-02-04_21h11.10.176,M2_experiment1,2023.2.3,59.711260228046754,2024-02-04 21h11.23.843654 +0100,
,,,,,,,,,,,,,,,,,,,,,,,,,,,,,,,,,,,,,,,,,,,,,,,,,,,,,,,,,,,,62.51059009996243,62.52353159990162,62.52353159990162,77.79619129991625,space,15.263825200032443,None,,,,,,,,,,,,,,,,,,,,,,,,,,,,,,,,,,,,,,,,,,,,,,,,,,,,,Balbir,001,2024-02-04_21h11.10.176,M2_experiment1,2023.2.3,59.711260228046754,2024-02-04 21h11.23.843654 +0100,
40,ModifiedSH,resources/new_sounds_2/F5fresher.wav,0.567437641723356,None,None,None,None,r,F,0,0,0,16,,,,,77.84088239993434,,,,,,,,,,,,,,,,,,,,,,,,,,,,,,,,,,,,,,,,,,,,,,,,,77.82837969996035,77.84088239993434,78.31148039991967,0.5153509000083432,78.89472599991132,78.89472599991132,79.37787839991506,88.1765260999091,r,9.265354400034994,None,None,,,,,,,,,,,,,,,,,,,,,,,,,,,,,,,,,,,,,,,,,Balbir,001,2024-02-04_21h11.10.176,M2_experiment1,2023.2.3,59.711260228046754,2024-02-04 21h11.23.843654 +0100,
54,NotModifiedSH,resources/new_sounds_not_modified/F5thrasher.wav,0.585496600933162,None,None,None,None,e,F,0,1,1,30,,,,,88.1921893999679,,,,,,,,,,,,,,,,,,,,,,,,,,,,,,,,,,,,,,,,,,,,,,,,,88.1776921999408,88.1921893999679,88.69142239994835,0.5141199000645429,89.30549409997184,89.27457189990673,89.77439999999478,92.14211639994755,r,2.861782200052403,None,None,1.1281806000042707,,,,,,,,,,,,,,,,,,,,,,,,,,,,,,,,,,,,,,,,Balbir,001,2024-02-04_21h11.10.176,M2_experiment1,2023.2.3,59.711260228046754,2024-02-04 21h11.23.843654 +0100,
39,ModifiedSH,resources/new_sounds_2/M7fresher.wav,0.497256235827664,None,None,None,None,r,M,0,2,2,15,,,,,92.15762529999483,,,,,,,,,,,,,,,,,,,,,,,,,,,,,,,,,,,,,,,,,,,,,,,,,92.14290839992464,92.15762529999483,92.65676849999,0.5142476999899372,93.15650969999842,93.13995639991481,93.63965299993288,94.72438629996032,e,1.5779193000635132,None,None,1.0139871999854222,,,,,,,,,,,,,,,,,,,,,,,,,,,,,,,,,,,,,,,,Balbir,001,2024-02-04_21h11.10.176,M2_experiment1,2023.2.3,59.711260228046754,2024-02-04 21h11.23.843654 +0100,
25,ModifiedSH,resources/new_sounds_2/F1swoosh.wav,0.770486715748874,None,None,None,None,r,F,0,3,3,1,,,,,94.7400948998984,,,,,,,,,,,,,,,,,,,,,,,,,,,,,,,,,,,,,,,,,,,,,,,,,94.7251893999055,94.7400948998984,95.2391459000064,0.5143340999493375,96.02218799991533,96.0056194999488,96.50526959996205,97.0901158999186,r,1.0800120000494644,None,None,,,,,,,,,,,,,,,,,,,,,,,,,,,,,,,,,,,,,,,,,Balbir,001,2024-02-04_21h11.10.176,M2_experiment1,2023.2.3,59.711260228046754,2024-02-04 21h11.23.843654 +0100,
52,NotModifiedSH,resources/new_sounds_not_modified/M4swoosh.wav,0.736227123531279,None,None,None,None,e,M,0,4,4,28,,,,,97.10592139989603,,,,,,,,,,,,,,,,,,,,,,,,,,,,,,,,,,,,,,,,,,,,,,,,,97.09089979995042,97.10592139989603,97.6050808998989,0.5145531999878585,98.3548006999772,98.3380926999962,98.8378517999081,99.53914479992818,r,1.1965991999022663,None,None,1.2642700000433251,,,,,,,,,,,,,,,,,,,,,,,,,,,,,,,,,,,,,,,,Balbir,001,2024-02-04_21h11.10.176,M2_experiment1,2023.2.3,59.711260228046754,2024-02-04 21h11.23.843654 +0100,
30,ModifiedT,resources/new_sounds_2/F3footer.wav,0.597777777777778,None,None,None,None,r,F,0,5,5,6,,,,,99.55515069991816,,,,,,,,,,,,,,,,,,,,,,,,,,,,,,,,,,,,,,,,,,,,,,,,,99.53997699997853,99.55515069991816,100.0541627999628,0.5145780999446288,100.65433569997549,100.63749529991765,101.13727959990501,103.48804919992108,e,2.8444320999551564,None,None,1.1147518999641761,,,,,,,,,,,,,,,,,,,,,,,,,,,,,,,,,,,,,,,,Balbir,001,2024-02-04_21h11.10.176,M2_experiment1,2023.2.3,59.711260228046754,2024-02-04 21h11.23.843654 +0100,
35,NotModifiedSH,resources/new_sounds_not_modified/M7mosh.wav,0.618134342110551,None,None,None,None,e,M,0,6,6,11,,,,,103.5042096999241,,,,,,,,,,,,,,,,,,,,,,,,,,,,,,,,,,,,,,,,,,,,,,,,,103.48914289998356,103.5042096999241,104.00300269993022,0.5143307000398636,104.6492842999287,104.61932449997403,105.11917129997164,107.61997040000279,r,2.9957859999267384,None,None,,,,,,,,,,,,,,,,,,,,,,,,,,,,,,,,,,,,,,,,,Balbir,001,2024-02-04_21h11.10.176,M2_experiment1,2023.2.3,59.711260228046754,2024-02-04 21h11.23.843654 +0100,
49,NotModifiedT,resources/new_sounds_not_modified/M2lot.wav,0.466575772426751,None,None,None,None,e,M,0,7,7,25,,,,,107.63550009997562,,,,,,,,,,,,,,,,,,,,,,,,,,,,,,,,,,,,,,,,,,,,,,,,,107.62075599993113,107.63550009997562,108.13477139989845,0.5143871000036597,108.60134729999118,108.60134729999118,109.10102129995357,109.66905659995973,e,1.0529051999328658,None,None,0.9813946000067517,,,,,,,,,,,,,,,,,,,,,,,,,,,,,,,,,,,,,,,,Balbir,001,2024-02-04_21h11.10.176,M2_experiment1,2023.2.3,59.711260228046754,2024-02-04 21h11.23.843654 +0100,
34,ModifiedSH,resources/new_sounds_2/M7mosh.wav,0.486031746031746,None,None,None,None,r,M,0,8,8,10,,,,,109.6848345999606,,,,,,,,,,,,,,,,,,,,,,,,,,,,,,,,,,,,,,,,,,,,,,,,,109.66986009990796,109.6848345999606,110.1840702999616,0.5146077999379486,110.68393379996996,110.66732419992331,111.1671702999156,112.151667399914,r,1.482023400021717,None,None,1.014465400017798,,,,,,,,,,,,,,,,,,,,,,,,,,,,,,,,,,,,,,,,Balbir,001,2024-02-04_21h11.10.176,M2_experiment1,2023.2.3,59.711260228046754,2024-02-04 21h11.23.843654 +0100,
24,NotModifiedT,resources/new_sounds_not_modified/F1party.wav,0.63399526438517,None,None,None,None,e,F,0,9,9,0,,,,,112.16732419992331,,,,,,,,,,,,,,,,,,,,,,,,,,,,,,,,,,,,,,,,,,,,,,,,,112.15245139994659,112.16732419992331,112.66659319994505,0.5145164000568911,113.29988359997515,113.29988359997515,113.79954629996791,115.36721279995982,e,2.054033799911849,None,None,1.1482318000635132,,,,,,,,,,,,,,,,,,,,,,,,,,,,,,,,,,,,,,,,Balbir,001,2024-02-04_21h11.10.176,M2_experiment1,2023.2.3,59.711260228046754,2024-02-04 21h11.23.843654 +0100,
47,ModifiedT,resources/new_sounds_2/M6root.wav,0.557210884353742,None,None,None,None,r,M,0,10,10,23,,,,,115.3830230999738,,,,,,,,,,,,,,,,,,,,,,,,,,,,,,,,,,,,,,,,,,,,,,,,,115.36805149994325,115.3830230999738,115.88214689993765,0.5144917001016438,116.44862559996545,116.43207249999978,116.93183339992538,117.483316799975,e,1.0461649000644684,None,None,1.0809654000913724,,,,,,,,,,,,,,,,,,,,,,,,,,,,,,,,,,,,,,,,Balbir,001,2024-02-04_21h11.10.176,M2_experiment1,2023.2.3,59.711260228046754,2024-02-04 21h11.23.843654 +0100,
53,NotModifiedSH,resources/new_sounds_not_modified/M6fresher.wav,0.558439616650624,None,None,None,None,e,M,0,11,11,29,,,,,117.49901339993812,,,,,,,,,,,,,,,,,,,,,,,,,,,,,,,,,,,,,,,,,,,,,,,,,117.48413339990657,117.49901339993812,117.99822760000825,0.5144838000414893,118.56463009992149,118.54794129997026,119.04796639992855,119.33307119994424,e,0.772463500034064,None,None,1.0808819000376388,,,,,,,,,,,,,,,,,,,,,,,,,,,,,,,,,,,,,,,,Balbir,001,2024-02-04_21h11.10.176,M2_experiment1,2023.2.3,59.711260228046754,2024-02-04 21h11.23.843654 +0100,
29,NotModifiedT,resources/new_sounds_2/M4getting.wav,0.612123590008089,None,None,None,None,e,M,0,12,12,5,,,,,119.35093449999113,,,,,,,,,,,,,,,,,,,,,,,,,,,,,,,,,,,,,,,,,,,,,,,,,119.33383769995999,119.35093449999113,119.84745809994638,0.5139889999991283,120.463988399948,120.44733499991708,,120.91530559991952,r,0.45521799998823553,None,None,1.1305184999946505,,,,,,,,,,,,,,,,,,,,,,,,,,,,,,,,,,,,,,,,Balbir,001,2024-02-04_21h11.10.176,M2_experiment1,2023.2.3,59.711260228046754,2024-02-04 21h11.23.843654 +0100,
32,ModifiedT,resources/new_sounds_2/M2city.wav,0.658866213151928,None,None,None,None,r,M,0,13,13,8,,,,,120.93117569992319,,,,,,,,,,,,,,,,,,,,,,,,,,,,,,,,,,,,,,,,,,,,,,,,,120.91610079992097,120.93117569992319,121.4303510999307,0.5146240000613034,122.09677919989917,122.08018920000177,122.5799409999745,122.69813149992842,r,0.6158294000197202,None,None,1.1810479999985546,,,,,,,,,,,,,,,,,,,,,,,,,,,,,,,,,,,,,,,,Balbir,001,2024-02-04_21h11.10.176,M2_experiment1,2023.2.3,59.711260228046754,2024-02-04 21h11.23.843654 +0100,
26,ModifiedSH,resources/new_sounds_2/F2fleshing.wav,0.620294784580499,None,None,None,None,r,F,0,14,14,2,,,,,122.71388129994739,,,,,,,,,,,,,,,,,,,,,,,,,,,,,,,,,,,,,,,,,,,,,,,,,122.6989079999039,122.71388129994739,123.21310579997953,0.5145774999400601,123.84633959992789,123.82952129992191,124.32934389996808,125.24733889999334,r,1.4009067000588402,None,None,1.1478043999522924,,,,,,,,,,,,,,,,,,,,,,,,,,,,,,,,,,,,,,,,Balbir,001,2024-02-04_21h11.10.176,M2_experiment1,2023.2.3,59.711260228046754,2024-02-04 21h11.23.843654 +0100,
46,NotModifiedT,resources/new_sounds_not_modified/M6pet.wav,0.506976177381986,None,None,None,None,e,M,0,15,15,22,,,,,125.26279869989958,,,,,,,,,,,,,,,,,,,,,,,,,,,,,,,,,,,,,,,,,,,,,,,,,125.24811449996196,125.26279869989958,125.76217189989984,0.5144231000449508,126.27866159996483,126.26194619992748,126.76204750000034,127.32991979992948,e,1.050827999948524,None,None,1.0309080999577418,,,,,,,,,,,,,,,,,,,,,,,,,,,,,,,,,,,,,,,,Balbir,001,2024-02-04_21h11.10.176,M2_experiment1,2023.2.3,59.711260228046754,2024-02-04 21h11.23.843654 +0100,
38,ModifiedT,resources/new_sounds_2/M7butter.wav,0.44172335600907,None,None,None,None,r,M,0,16,16,14,,,,,127.34647039999254,,,,,,,,,,,,,,,,,,,,,,,,,,,,,,,,,,,,,,,,,,,,,,,,,127.33100229990669,127.34647039999254,127.84492259996478,0.514438399928622,128.29469889996108,128.27801569993608,128.77786519995425,129.06264179991558,r,0.7740983000257984,None,None,0.9642111000139266,,,,,,,,,,,,,,,,,,,,,,,,,,,,,,,,,,,,,,,,Balbir,001,2024-02-04_21h11.10.176,M2_experiment1,2023.2.3,59.711260228046754,2024-02-04 21h11.23.843654 +0100,
36,NotModifiedT,resources/new_sounds_not_modified/F4lot.wav,0.386965569882676,None,None,None,None,e,F,0,17,17,12,,,,,129.0783492999617,,,,,,,,,,,,,,,,,,,,,,,,,,,,,,,,,,,,,,,,,,,,,,,,,129.0634401999414,129.0783492999617,129.5777592000086,0.5147095998981968,129.9774630999891,129.96075480000582,130.46059299993794,131.52860499999952,e,1.5601776000112295,None,None,0.9143996998900548,,,,,,,,,,,,,,,,,,,,,,,,,,,,,,,,,,,,,,,,Balbir,001,2024-02-04_21h11.10.176,M2_experiment1,2023.2.3,59.711260228046754,2024-02-04 21h11.23.843654 +0100,
44,ModifiedSH,resources/new_sounds_2/F2thrasher.wav,0.510249433106576,None,None,None,None,r,F,0,18,18,20,,,,,131.54436929989606,,,,,,,,,,,,,,,,,,,,,,,,,,,,,,,,,,,,,,,,,,,,,,,,,131.52939239994157,131.54436929989606,132.04337889992166,0.5143567000050098,132.55988680000883,132.54330649995245,133.04311689990573,134.37760179990437,r,1.8203747000079602,None,None,1.0308845000108704,,,,,,,,,,,,,,,,,,,,,,,,,,,,,,,,,,,,,,,,Balbir,001,2024-02-04_21h11.10.176,M2_experiment1,2023.2.3,59.711260228046754,2024-02-04 21h11.23.843654 +0100,
41,ModifiedT,resources/new_sounds_2/F4utter.wav,0.53952380952381,None,None,None,None,r,F,0,19,19,17,,,,,134.39325939991977,,,,,,,,,,,,,,,,,,,,,,,,,,,,,,,,,,,,,,,,,,,,,,,,,134.37841599993408,134.39325939991977,134.8926138000097,0.5146115999668837,135.46106739994138,135.42560570000205,135.925567499944,136.61032509990036,r,1.1688417000696063,None,None,,,,,,,,,,,,,,,,,,,,,,,,,,,,,,,,,,,,,,,,,Balbir,001,2024-02-04_21h11.10.176,M2_experiment1,2023.2.3,59.711260228046754,2024-02-04 21h11.23.843654 +0100,
27,ModifiedSH,resources/new_sounds_2/M4flesh.wav,0.722767978649223,None,None,None,None,r,M,0,20,20,3,,,,,136.62569639994763,,,,,,,,,,,,,,,,,,,,,,,,,,,,,,,,,,,,,,,,,,,,,,,,,136.61111009994056,136.62569639994763,137.12500599992927,0.5142577999504283,137.8581806999864,137.84159939992242,138.34151359996758,139.159236199921,r,1.3096934000495821,None,None,,,,,,,,,,,,,,,,,,,,,,,,,,,,,,,,,,,,,,,,,Balbir,001,2024-02-04_21h11.10.176,M2_experiment1,2023.2.3,59.711260228046754,2024-02-04 21h11.23.843654 +0100,
50,NotModifiedSH,resources/new_sounds_not_modified/M3dish.wav,0.409302075267592,None,None,None,None,e,M,0,21,21,26,,,,,139.17472229991108,,,,,,,,,,,,,,,,,,,,,,,,,,,,,,,,,,,,,,,,,,,,,,,,,139.16006329993252,139.17472229991108,139.67452599992976,0.5148779998999089,140.09074779995717,140.07405880000442,140.57394769997336,141.07522009999957,e,0.9900643000146374,None,None,0.9310729999560863,,,,,,,,,,,,,,,,,,,,,,,,,,,,,,,,,,,,,,,,Balbir,001,2024-02-04_21h11.10.176,M2_experiment1,2023.2.3,59.711260228046754,2024-02-04 21h11.23.843654 +0100,
43,NotModifiedT,resources/new_sounds_not_modified/F2feat.wav,0.644364234737267,None,None,None,None,e,F,0,22,22,19,,,,,141.0910532999551,,,,,,,,,,,,,,,,,,,,,,,,,,,,,,,,,,,,,,,,,,,,,,,,,141.0760253999615,141.0910532999551,141.59019029990304,0.5145721000153571,142.24022899998818,142.2235073999036,142.72351119993255,142.90808709990233,e,0.6738420000765473,None,None,1.164608299965039,,,,,,,,,,,,,,,,,,,,,,,,,,,,,,,,,,,,,,,,Balbir,001,2024-02-04_21h11.10.176,M2_experiment1,2023.2.3,59.711260228046754,2024-02-04 21h11.23.843654 +0100,
28,ModifiedSH,resources/new_sounds_2/F3flushing.wav,0.687845804988662,None,None,None,None,r,F,0,23,23,4,,,,,142.9238047999097,,,,,,,,,,,,,,,,,,,,,,,,,,,,,,,,,,,,,,,,,,,,,,,,,142.908915399923,142.9238047999097,143.423141199979,0.514631099998951,144.13951309991535,144.1060616999166,144.60589709994383,145.0073022999568,e,0.8869131000246853,None,None,,,,,,,,,,,,,,,,,,,,,,,,,,,,,,,,,,,,,,,,,Balbir,001,2024-02-04_21h11.10.176,M2_experiment1,2023.2.3,59.711260228046754,2024-02-04 21h11.23.843654 +0100,
31,NotModifiedT,resources/new_sounds_not_modified/F3footer.wav,0.573733808005514,None,None,None,None,e,F,0,24,24,7,,,,,145.02283739997074,,,,,,,,,,,,,,,,,,,,,,,,,,,,,,,,,,,,,,,,,,,,,,,,,145.00808689999394,145.02283739997074,145.52211049990728,0.5143970999633893,146.10535480000544,146.08881210000254,146.58862579998095,146.94001409993507,e,0.8403958000708371,None,None,1.0976446999702603,,,,,,,,,,,,,,,,,,,,,,,,,,,,,,,,,,,,,,,,Balbir,001,2024-02-04_21h11.10.176,M2_experiment1,2023.2.3,59.711260228046754,2024-02-04 21h11.23.843654 +0100,
37,ModifiedT,resources/new_sounds_2/F4lot.wav,0.449274376417234,None,None,None,None,r,F,0,25,25,13,,,,,146.95557779993396,,,,,,,,,,,,,,,,,,,,,,,,,,,,,,,,,,,,,,,,,,,,,,,,,146.9408227999229,146.95557779993396,147.45504279993474,0.514604700030759,147.90474849997554,147.90474849997554,148.40469489991665,148.95615360001102,e,1.0427352999104187,None,None,0.9647440999979153,,,,,,,,,,,,,,,,,,,,,,,,,,,,,,,,,,,,,,,,Balbir,001,2024-02-04_21h11.10.176,M2_experiment1,2023.2.3,59.711260228046754,2024-02-04 21h11.23.843654 +0100,
33,ModifiedT,resources/new_sounds_2/M7fatter.wav,0.644739229024943,None,None,None,None,r,M,0,26,26,9,,,,,148.97185460000765,,,,,,,,,,,,,,,,,,,,,,,,,,,,,,,,,,,,,,,,,,,,,,,,,148.9569711999502,148.97185460000765,149.4708003998967,0.5142313000978902,150.12066039990168,150.10405189997982,150.60386289993767,151.52164749999065,e,1.4060284999432042,None,None,1.1640863000648096,,,,,,,,,,,,,,,,,,,,,,,,,,,,,,,,,,,,,,,,Balbir,001,2024-02-04_21h11.10.176,M2_experiment1,2023.2.3,59.711260228046754,2024-02-04 21h11.23.843654 +0100,
51,NotModifiedSH,resources/new_sounds_not_modified/M4mosh.wav,0.573267020202984,None,None,None,None,e,M,0,27,27,27,,,,,151.5372897000052,,,,,,,,,,,,,,,,,,,,,,,,,,,,,,,,,,,,,,,,,,,,,,,,,151.5224361999426,151.5372897000052,152.0368138999911,0.5147528999950737,152.61994489992503,152.60309339989908,153.1031398999039,153.83763969992287,e,1.217714300029911,None,None,1.097878300002776,,,,,,,,,,,,,,,,,,,,,,,,,,,,,,,,,,,,,,,,Balbir,001,2024-02-04_21h11.10.176,M2_experiment1,2023.2.3,59.711260228046754,2024-02-04 21h11.23.843654 +0100,
42,NotModifiedT,resources/new_sounds_not_modified/F4feat.wav,0.478604920503187,None,None,None,None,e,F,0,28,28,18,,,,,153.85305539995898,,,,,,,,,,,,,,,,,,,,,,,,,,,,,,,,,,,,,,,,,,,,,,,,,153.8384209999349,153.85305539995898,154.35256669996306,0.5145160000538453,154.8359066999983,154.81910869991407,155.3189344999846,157.5531327999197,r,2.722742500016466,None,None,0.9978550999658182,,,,,,,,,,,,,,,,,,,,,,,,,,,,,,,,,,,,,,,,Balbir,001,2024-02-04_21h11.10.176,M2_experiment1,2023.2.3,59.711260228046754,2024-02-04 21h11.23.843654 +0100,
48,ModifiedT,resources/new_sounds_2/M3lottery.wav,0.649773242630385,None,None,None,None,r,M,0,29,29,24,,,,,157.56882469996344,,,,,,,,,,,,,,,,,,,,,,,,,,,,,,,,,,,,,,,,,,,,,,,,,157.5539785999572,157.56882469996344,158.06816539994907,0.5146418999647722,158.71782329992857,158.71782329992857,159.21773589996155,160.00244720000774,e,1.2813414999982342,None,None,1.164697500062175,,,,,,,,,,,,,,,,,,,,,,,,,,,,,,,,,,,,,,,,Balbir,001,2024-02-04_21h11.10.176,M2_experiment1,2023.2.3,59.711260228046754,2024-02-04 21h11.23.843654 +0100,
45,NotModifiedSH,resources/new_sounds_not_modified/F3mosh.wav,0.628649263052651,None,None,None,None,e,F,0,30,30,21,,,,,160.0181234999327,,,,,,,,,,,,,,,,,,,,,,,,,,,,,,,,,,,,,,,,,,,,,,,,,160.00329829996917,160.0181234999327,160.51718599989545,0.514285699930042,161.15056159999222,161.13377610000316,161.633472199901,162.0350180999376,e,0.8836436000419781,None,None,1.1477015999844298,,,,,,,,,,,,,,,,,,,,,,,,,,,,,,,,,,,,,,,,Balbir,001,2024-02-04_21h11.10.176,M2_experiment1,2023.2.3,59.711260228046754,2024-02-04 21h11.23.843654 +0100,
,,,,,,,,,,,,,,,,,,,,,,,,,,,,,,,,,,,,,,,,,,,,,,,,,,,,,,,,,,,,,,,,,,,,,,,,,,,,,,,,162.03558719996363,162.0511824999703,162.0511824999703,174.68095489998814,space,12.613452399964444,None,,,,,,,,,,,,,,,,,,,,,,,,,,,,,,,,,Balbir,001,2024-02-04_21h11.10.176,M2_experiment1,2023.2.3,59.711260228046754,2024-02-04 21h11.23.843654 +0100,
,,,,,,,,,,,,,,,,,,,,,,,,,,,,,,,,,,,,,,,,,,,,,,,,,,,,,,,,,,,,,,,,,,,,,,,,,,,,,,,,,,,,,,,174.68099959997926,174.69741609995253,174.69741609995253,187.75918999989517,space,13.051988999941386,None,,,,,,,,,,,,,,,,,,,,,,,,,,Balbir,001,2024-02-04_21h11.10.176,M2_experiment1,2023.2.3,59.711260228046754,2024-02-04 21h11.23.843654 +0100,
9,ModifiedSH,resources/new_sounds_not_modified/M4bot.wav,0.453615769026229,resources/new_sounds_not_modified/M3bosh.wav,0.524217377306996,resources/new_sounds_2/M2bosh.wav,0.387165532879819,2,M,,,,,0,0,0,8,187.80565090000164,,,,,,,,,,,,,,,,,,,,,,,,,,,,,,,,,,,,,,,,,,,,,,,,,,,,,,,,,,,,,,,,,,,,,,,,,,,,187.78979589999653,187.80565090000164,188.27450329996645,0.5153715999331325,188.74105259997305,0.9819171000272036,189.2242010999471,189.22419971990166,189.7649967999896,189.7649967999896,190.24048679997213,190.24070201994618,190.62374599999748,190.64845459989738,190.64845459989738,191.1241073999554,198.05626169999596,t,7.415638999897055,None,None,0,,,,Balbir,001,2024-02-04_21h11.10.176,M2_experiment1,2023.2.3,59.711260228046754,2024-02-04 21h11.23.843654 +0100,
22,ModifiedSH,resources/new_sounds_not_modified/F1mash.wav,0.601753675244161,resources/new_sounds_2/F3mash.wav,0.42437641723356,resources/new_sounds_not_modified/F4mat.wav,0.401181209050264,3,F,,,,,0,1,1,21,198.07378499989863,,,,,,,,,,,,,,,,,,,,,,,,,,,,,,,,,,,,,,,,,,,,,,,,,,,,,,,,,,,,,,,,,,,,,,,,,,,,198.0574193999637,198.07378499989863,198.57115059997886,0.5141333999345079,199.1874921999406,1.1304726999951527,199.67064469994511,199.67083171993727,200.10701059992425,200.10701059992425,200.5870692000026,200.58698761992855,200.987038299907,201.00541320000775,201.00541320000775,201.48689309996553,202.87170539994258,t,1.8809862000634894,None,None,0,,,,Balbir,001,2024-02-04_21h11.10.176,M2_experiment1,2023.2.3,59.711260228046754,2024-02-04 21h11.23.843654 +0100,
13,ModifiedT,resources/new_sounds_not_modified/F1fish.wav,0.519196656146427,resources/new_sounds_not_modified/F4fit.wav,0.297524783699501,resources/new_sounds_2/F2fit.wav,0.443741496598639,2,F,,,,,0,2,2,12,202.88864489994012,,,,,,,,,,,,,,,,,,,,,,,,,,,,,,,,,,,,,,,,,,,,,,,,,,,,,,,,,,,,,,,,,,,,,,,,,,,,202.8725166999502,202.88864489994012,203.38637939991895,0.5142628999892622,203.93030509992968,,204.40245999989565,204.40244001994142,204.7102983999066,204.7102983999066,205.2024046999868,205.2022294200142,205.63536879990716,205.66505219996907,205.66505219996907,,205.98755479999818,t,0.3456880000885576,None,None,0,,,,Balbir,001,2024-02-04_21h11.10.176,M2_experiment1,2023.2.3,59.711260228046754,2024-02-04 21h11.23.843654 +0100,
17,ModifiedT,resources/new_sounds_2/M2bosh.wav,0.387165532879819,resources/new_sounds_not_modified/M6bot.wav,0.501070841911371,resources/new_sounds_not_modified/M5bosh.wav,0.597358038485993,2,M,,,,,0,3,3,16,206.00467719999142,,,,,,,,,,,,,,,,,,,,,,,,,,,,,,,,,,,,,,,,,,,,,,,,,,,,,,,,,,,,,,,,,,,,,,,,,,,,205.98839909990784,206.00467719999142,206.5018927999772,0.5139031000435352,206.9176281999098,0.9296312000369653,207.38483019999694,207.38476022001123,207.90446439990774,207.90446439990774,208.38452590000816,208.38458601996535,208.99866969999857,208.99866969999857,208.99866969999857,209.48420949990395,212.93497780000325,r,3.933818500023335,None,None,0,,,,Balbir,001,2024-02-04_21h11.10.176,M2_experiment1,2023.2.3,59.711260228046754,2024-02-04 21h11.23.843654 +0100,
5,ModifiedT,resources/new_sounds_not_modified/F4met.wav,0.44494520825283956,resources/new_sounds_2/F2met.wav,0.634104308390023,resources/new_sounds_not_modified/F1mesh.wav,0.5571319490698841,1,F,,,,,0,4,4,4,212.95240299997386,,,,,,,,,,,,,,,,,,,,,,,,,,,,,,,,,,,,,,,,,,,,,,,,,,,,,,,,,,,,,,,,,,,,,,,,,,,,212.93580819992349,212.95240299997386,213.44945069996174,0.5140287999529392,213.89927279995754,0.9638470000354573,214.38244129996747,214.38251571991714,215.02698759990744,,215.51544909994118,215.5156453200034,216.08828299993183,216.08828299993183,216.08828299993183,216.58177139994223,220.46569429989904,t,4.368860500049777,None,None,0,,,,Balbir,001,2024-02-04_21h11.10.176,M2_experiment1,2023.2.3,59.711260228046754,2024-02-04 21h11.23.843654 +0100,
4,ModifiedT,resources/new_sounds_not_modified/M4mat.wav,0.4451593985921889,resources/new_sounds_2/M3mat.wav,0.494308390022676,resources/new_sounds_not_modified/M2mash.wav,0.7358947371573947,1,M,,,,,0,5,5,3,220.48320929997135,,,,,,,,,,,,,,,,,,,,,,,,,,,,,,,,,,,,,,,,,,,,,,,,,,,,,,,,,,,,,,,,,,,,,,,,,,,,220.46651870000642,220.48320929997135,220.98018559999764,0.5140535000246018,221.43014509999193,0.964006399968639,221.91378239996266,221.91352451994317,222.425931799924,222.425931799924,222.9129064999288,222.91298511991045,223.6459394999547,223.66766039992217,223.66766039992217,224.14585749991238,226.43069899990223,t,2.7768674000399187,None,None,0,,,,Balbir,001,2024-02-04_21h11.10.176,M2_experiment1,2023.2.3,59.711260228046754,2024-02-04 21h11.23.843654 +0100,
12,ModifiedSH,resources/new_sounds_not_modified/F4bot.wav,0.390471530438234,resources/new_sounds_not_modified/F3bosh.wav,0.505513996768869,resources/new_sounds_2/F2bosh.wav,0.423673469387755,2,F,,,,,0,6,6,11,226.44782070000656,,,,,,,,,,,,,,,,,,,,,,,,,,,,,,,,,,,,,,,,,,,,,,,,,,,,,,,,,,,,,,,,,,,,,,,,,,,,226.4315016999608,226.44782070000656,226.94507359992713,0.5139558999799192,227.34488049999345,0.9137603999115527,227.82800479989965,227.82805931993062,228.3481330999639,228.3481330999639,228.82759229990188,228.82761341991136,229.2652739000041,229.2652739000041,229.2652739000041,229.76072659995407,230.94517669989727,r,1.6639725000131875,None,None,0,,,,Balbir,001,2024-02-04_21h11.10.176,M2_experiment1,2023.2.3,59.711260228046754,2024-02-04 21h11.23.843654 +0100,
8,ModifiedSH,resources/new_sounds_not_modified/M3bot.wav,0.368685295497059,resources/new_sounds_not_modified/M1bosh.wav,0.5055628425466665,resources/new_sounds_2/M5bosh.wav,0.4857823129251701,2,M,,,,,0,7,7,7,230.96211449999828,,,,,,,,,,,,,,,,,,,,,,,,,,,,,,,,,,,,,,,,,,,,,,,,,,,,,,,,,,,,,,,,,,,,,,,,,,,,230.94597989995964,230.96211449999828,231.46004999999423,0.514453100040555,231.85961939999834,,232.32642189995386,232.32628112001112,232.84707839996554,232.84707839996554,233.3260672999313,233.3261189199402,233.80929399991874,233.82927769992966,233.82927769992966,234.3091041999869,235.4273904999718,r,1.6081330999732018,None,None,0,,,,Balbir,001,2024-02-04_21h11.10.176,M2_experiment1,2023.2.3,59.711260228046754,2024-02-04 21h11.23.843654 +0100,
15,ModifiedSH,resources/new_sounds_not_modified/M2fish.wav,0.602031419699607,resources/new_sounds_not_modified/M5fit.wav,0.593107043618346,resources/new_sounds_2/M1fish.wav,0.512562358276644,1,M,,,,,0,8,8,14,235.44474800000899,,,,,,,,,,,,,,,,,,,,,,,,,,,,,,,,,,,,,,,,,,,,,,,,,,,,,,,,,,,,,,,,,,,,,,,,,,,,235.42819089989644,235.44474800000899,235.94182929990347,0.5140209000092,236.55836769996677,1.130555500043556,237.041461899993,237.0415396199678,237.64553189999424,237.64553189999424,238.1244881999446,238.12447841995163,238.65439279994462,238.65439279994462,238.65439279994462,239.1408228999935,240.69227619993035,t,2.031106899958104,None,None,0,,,,Balbir,001,2024-02-04_21h11.10.176,M2_experiment1,2023.2.3,59.711260228046754,2024-02-04 21h11.23.843654 +0100,
16,ModifiedT,resources/new_sounds_2/M2fit.wav,0.646553287981859,resources/new_sounds_not_modified/M4fit.wav,0.508424667314028,resources/new_sounds_not_modified/M5fish.wav,0.451129071842058,2,M,,,,,0,9,9,15,240.70940719998907,,,,,,,,,,,,,,,,,,,,,,,,,,,,,,,,,,,,,,,,,,,,,,,,,,,,,,,,,,,,,,,,,,,,,,,,,,,,240.6930752999615,240.70940719998907,241.20676769991405,0.5140781999798492,241.8564831999829,1.163785699987784,242.3397166999057,242.3396987199667,242.8605252999114,242.8605252999114,243.35627299989574,243.3559547199984,243.80590899998788,243.8259014999494,243.8259014999494,244.30575039994437,245.20734339999035,e,1.3874832999426872,None,None,0,,,,Balbir,001,2024-02-04_21h11.10.176,M2_experiment1,2023.2.3,59.711260228046754,2024-02-04 21h11.23.843654 +0100,
21,ModifiedSH,resources/new_sounds_not_modified/F5fish.wav,0.478583202882902,resources/new_sounds_2/F4fish.wav,0.366258503401361,resources/new_sounds_not_modified/F2fit.wav,0.374261916532497,3,F,,,,,0,10,10,20,245.2242367999861,,,,,,,,,,,,,,,,,,,,,,,,,,,,,,,,,,,,,,,,,,,,,,,,,,,,,,,,,,,,,,,,,,,,,,,,,,,,245.2081576999044,245.2242367999861,245.7218424999155,0.5140779999783263,246.20521359995473,0.9974443999817595,246.68844029994216,246.68816131999483,247.06104159995448,247.06104159995448,247.5552289999323,247.55460491991835,247.9545052999165,247.9545052999165,,248.43767999997362,250.28920599992853,t,2.3278087000362575,None,None,0,,,,Balbir,001,2024-02-04_21h11.10.176,M2_experiment1,2023.2.3,59.711260228046754,2024-02-04 21h11.23.843654 +0100,
20,ModifiedSH,resources/new_sounds_2/F2push.wav,0.418027210884354,resources/new_sounds_not_modified/F4push.wav,0.436144678520506,resources/new_sounds_not_modified/F3put.wav,0.437781204290985,2,F,,,,,0,11,11,19,250.30640249990392,,,,,,,,,,,,,,,,,,,,,,,,,,,,,,,,,,,,,,,,,,,,,,,,,,,,,,,,,,,,,,,,,,,,,,,,,,,,250.29000859998632,250.30640249990392,250.80362419993617,0.5140035999938846,251.2492139999522,,251.72001089993864,251.71990232000826,252.1769948999863,252.1769948999863,252.6529597999761,252.65286451991415,253.086095299921,253.1097024999326,253.1097024999326,253.58610289997887,254.95424589992035,e,1.8648391000460833,None,None,0,,,,Balbir,001,2024-02-04_21h11.10.176,M2_experiment1,2023.2.3,59.711260228046754,2024-02-04 21h11.23.843654 +0100,
18,ModifiedT,resources/new_sounds_2/M2put.wav,0.532199546485261,resources/new_sounds_not_modified/M7put.wav,0.410382098763918,resources/new_sounds_not_modified/M5push.wav,0.499025816019625,2,M,,,,,0,12,12,17,254.97138269990683,,,,,,,,,,,,,,,,,,,,,,,,,,,,,,,,,,,,,,,,,,,,,,,,,,,,,,,,,,,,,,,,,,,,,,,,,,,,254.95505579991732,254.97138269990683,255.46885239996482,0.5142085000406951,256.0018063999014,1.0471396000357345,256.5036853000056,256.5019571199664,256.93146230001,256.93146230001,257.401473899954,257.40131191996625,257.92031529999804,257.92031529999804,257.92031529999804,258.4009700999595,258.96944999997504,r,1.036115900031291,None,None,0,,,,Balbir,001,2024-02-04_21h11.10.176,M2_experiment1,2023.2.3,59.711260228046754,2024-02-04 21h11.23.843654 +0100,
10,ModifiedT,resources/new_sounds_not_modified/M2fit.wav,0.423218058079414,resources/new_sounds_not_modified/M5fish.wav,0.451129071842058,resources/new_sounds_2/M4fit.wav,0.597210884353741,1,M,,,,,0,13,13,9,258.9864943999564,,,,,,,,,,,,,,,,,,,,,,,,,,,,,,,,,,,,,,,,,,,,,,,,,,,,,,,,,,,,,,,,,,,,,,,,,,,,258.97026259999257,258.9864943999564,259.4839650999056,0.5140994000248611,259.933756699902,0.9638988999649882,260.4002676999662,260.40033291996224,260.8729159999639,260.8729159999639,261.3499568999978,261.35002281999914,261.96110610000324,261.96110610000324,261.96110610000324,262.4514048999408,264.2342871999135,r,2.2638809999916703,None,None,0,,,,Balbir,001,2024-02-04_21h11.10.176,M2_experiment1,2023.2.3,59.711260228046754,2024-02-04 21h11.23.843654 +0100,
3,ModifiedT,resources/new_sounds_2/F5mat.wav,0.565396825396825,resources/new_sounds_not_modified/F4mash.wav,0.38066522534541036,resources/new_sounds_not_modified/F2mat.wav,0.5007174554648515,3,F,,,,,0,14,14,2,264.2513561999658,,,,,,,,,,,,,,,,,,,,,,,,,,,,,,,,,,,,,,,,,,,,,,,,,,,,,,,,,,,,,,,,,,,,,,,,,,,,264.2351093000034,264.2513561999658,264.7488239000086,0.5141172000439838,265.3154196999967,1.0807103000115603,265.81525320000947,265.815003519936,266.2053333999356,266.2053333999356,266.68152039998677,266.68204311997397,267.1811960999621,267.1811960999621,267.1979438998969,267.68104049994145,270.2158177999081,e,3.0276541000930592,None,None,0,,,,Balbir,001,2024-02-04_21h11.10.176,M2_experiment1,2023.2.3,59.711260228046754,2024-02-04 21h11.23.843654 +0100,
7,ModifiedSH,resources/new_sounds_2/M1bosh.wav,0.4574829931972789,resources/new_sounds_not_modified/M2bot.wav,0.415863975908209,resources/new_sounds_not_modified/M4bosh.wav,0.4533657452807347,3,M,,,,,0,15,15,6,270.23274359991774,,,,,,,,,,,,,,,,,,,,,,,,,,,,,,,,,,,,,,,,,,,,,,,,,,,,,,,,,,,,,,,,,,,,,,,,,,,,270.21662699989974,270.23274359991774,270.7302415999584,0.5140120000578463,271.1966559999855,0.9804160000057891,271.67984279990196,271.6797980199917,272.1074751999695,272.1074751999695,272.5962644999381,272.5962643199018,273.04626549989916,273.06606459990144,273.06606459990144,273.54599599994253,273.7975640000077,e,0.734212200040929,None,None,0,,,,Balbir,001,2024-02-04_21h11.10.176,M2_experiment1,2023.2.3,59.711260228046754,2024-02-04 21h11.23.843654 +0100,
11,ModifiedSH,resources/new_sounds_not_modified/M1fish.wav,0.569506825661794,resources/new_sounds_2/M7fit.wav,0.485691609977324,resources/new_sounds_not_modified/M3fit.wav,0.479334255844424,3,M,,,,,0,16,16,10,273.81464259990025,,,,,,,,,,,,,,,,,,,,,,,,,,,,,,,,,,,,,,,,,,,,,,,,,,,,,,,,,,,,,,,,,,,,,,,,,,,,273.79837799991947,273.81464259990025,274.31231509998906,0.514333099941723,274.9099203000078,1.111934799933806,275.37873869994655,275.3785177199752,275.8799014999531,275.8799014999531,276.3616351999808,276.36163831996964,276.8515005999943,276.8515005999943,276.8515005999943,277.34473769995384,282.52788819989655,t,5.6597641000989825,None,None,0,,,,Balbir,001,2024-02-04_21h11.10.176,M2_experiment1,2023.2.3,59.711260228046754,2024-02-04 21h11.23.843654 +0100,
1,ModifiedT,resources/new_sounds_not_modified/F2fit.wav,0.374261916532496,resources/new_sounds_not_modified/F5fish.wav,0.478583202882902,resources/new_sounds_2/F4fit.wav,0.41736473916697,1,F,,,,,0,17,17,0,282.54480189993046,,,,,,,,,,,,,,,,,,,,,,,,,,,,,,,,,,,,,,,,,,,,,,,,,,,,,,,,,,,,,,,,,,,,,,,,,,,,282.52872209995985,282.54480189993046,283.0426784999436,0.5143491000635549,283.4258916999679,0.8975572000490502,283.9091826999793,283.90910501993494,284.410204899963,284.410204899963,284.8920688999351,284.89218952000374,285.30874629993923,285.30874629993923,,285.80853689997457,286.2266136999242,r,0.9002665000734851,None,None,0,,,,Balbir,001,2024-02-04_21h11.10.176,M2_experiment1,2023.2.3,59.711260228046754,2024-02-04 21h11.23.843654 +0100,
14,ModifiedSH,resources/new_sounds_not_modified/F2bosh.wav,0.494392229081527,resources/new_sounds_not_modified/F5bot.wav,0.485673207115724,resources/new_sounds_2/F1bosh.wav,0.520634920634921,1,F,,,,,0,18,18,13,286.24364479992073,,,,,,,,,,,,,,,,,,,,,,,,,,,,,,,,,,,,,,,,,,,,,,,,,,,,,,,,,,,,,,,,,,,,,,,,,,,,286.22746329999063,286.24364479992073,286.7414262999082,0.5143660999601707,287.2413613999961,1.0143001999240369,287.72440589999314,287.72446801996557,288.2281129999319,288.2281129999319,288.7075193999335,288.7073961200076,289.2437809999101,289.2437809999101,289.2437809999101,289.7404487999156,289.92566469998565,e,0.6789346999721602,None,None,0,,,,Balbir,001,2024-02-04_21h11.10.176,M2_experiment1,2023.2.3,59.711260228046754,2024-02-04 21h11.23.843654 +0100,
2,ModifiedSh,resources/new_sounds_not_modified/F2fish.wav,0.528250066930233,resources/new_sounds_2/F1fit.wav,0.423218058079413,resources/new_sounds_not_modified/F5fit.wav,0.2975247836995,3,F,,,,,0,19,19,1,289.94289770000614,,,,,,,,,,,,,,,,,,,,,,,,,,,,,,,,,,,,,,,,,,,,,,,,,,,,,,,,,,,,,,,,,,,,,,,,,,,,289.9264631998958,289.94289770000614,290.44015049992595,0.5140689000254497,290.9733343999833,1.047249799943529,291.4565362998983,291.4565545200021,291.9015211999649,291.9015211999649,292.3897541000042,292.38956801994937,292.7012225999497,292.7012225999497,292.7012225999497,293.18926699995063,293.84124509990215,e,1.1369634999427944,None,None,0,,,,Balbir,001,2024-02-04_21h11.10.176,M2_experiment1,2023.2.3,59.711260228046754,2024-02-04 21h11.23.843654 +0100,
19,ModifiedT,resources/new_sounds_2/F2put.wav,0.521360544217687,resources/new_sounds_not_modified/F4push.wav,0.436144678520506,resources/new_sounds_not_modified/F5put.wav,0.363522850118329,2,F,,,,,0,20,20,18,293.8583257999271,,,,,,,,,,,,,,,,,,,,,,,,,,,,,,,,,,,,,,,,,,,,,,,,,,,,,,,,,,,,,,,,,,,,,,,,,,,,293.84205189999193,293.8583257999271,294.35555039998144,0.5138888999354094,294.8888756999513,1.0472128000110388,295.3717811999377,295.37193381990073,295.8271494999062,295.8271494999062,296.30490829993505,296.3048759200028,296.68424089998007,296.68424089998007,296.68424089998007,297.17131649993826,297.60644789994694,e,0.9098442998947576,None,None,0,,,,Balbir,001,2024-02-04_21h11.10.176,M2_experiment1,2023.2.3,59.711260228046754,2024-02-04 21h11.23.843654 +0100,
6,ModifiedT,resources/new_sounds_not_modified/M1met.wav,0.532038259057699,resources/new_sounds_2/M3met.wav,0.558503401360544,resources/new_sounds_not_modified/M5mesh.wav,0.5032130872900709,1,M,,,,,0,21,21,5,297.6236680999864,,,,,,,,,,,,,,,,,,,,,,,,,,,,,,,,,,,,,,,,,,,,,,,,,,,,,,,,,,,,,,,,,,,,,,,,,,,,297.60727189993486,297.6236680999864,298.1211104999529,0.5142235999228433,298.6544764999999,1.0475835999241099,299.1539526999695,299.1538892199169,299.73008079989813,299.73008079989813,300.20368269993924,300.20372732001124,300.7033728999086,300.7247692999663,300.7247692999663,301.20324830000754,301.34054289991036,e,0.6276885000988841,None,None,0,,,,Balbir,001,2024-02-04_21h11.10.176,M2_experiment1,2023.2.3,59.711260228046754,2024-02-04 21h11.23.843654 +0100,
,,,,,,,,,,,,,,,,,,,,,,,,,,,,,,,,,,,,,,,,,,,,,,,,,,,,,,,,,,,,,,,,,,,,,,,,,,,,,,,,,,,,,,,,,,,,,,,,,,,,,,,,,,,,,,,,,,,,301.34121979994234,301.35651209997013,304.35251989995595,,,,,,,,
