ItemNb,Condition,Sound1,DurationSound1,Sound2,DurationSound2,Sound3,DurationSound3,ExpectedKey,Condition2,trials_task3.thisRepN,trials_task3.thisTrialN,trials_task3.thisN,trials_task3.thisIndex,trials_task1.thisRepN,trials_task1.thisTrialN,trials_task1.thisN,trials_task1.thisIndex,thisRow.t,notes,Welcome.started,textWelcomeMessage.started,keyWelcome.started,Welcome.stopped,keyWelcome.keys,keyWelcome.rt,keyWelcome.duration,Welcome_2.started,textWelcome2.started,key_resp_5.started,Welcome_2.stopped,key_resp_5.keys,key_resp_5.rt,key_resp_5.duration,Welcome_3.started,textWelcome3.started,key_resp_6.started,Welcome_3.stopped,key_resp_6.keys,key_resp_6.rt,key_resp_6.duration,blank.started,blank1.started,blank1.stopped,blank.stopped,volume_explanation.started,text_volume.started,key_resp_8.started,volume_explanation.stopped,key_resp_8.keys,key_resp_8.rt,key_resp_8.duration,volume.started,text_2.started,key_resp_7.started,sound_testvolume.started,volume.stopped,key_resp_7.keys,key_resp_7.rt,key_resp_7.duration,explanation.started,text.started,key_info_oddity.started,explanation.stopped,key_info_oddity.keys,key_info_oddity.rt,key_info_oddity.duration,task3.started,key_replay3.started,text_recording1_3.started,sound1_3.started,key_resp_question3.started,text_recording1_3.stopped,text_questiontask3.started,task3.stopped,key_resp_question3.keys,key_resp_question3.rt,key_resp_question3.duration,key_replay3.keys,sound1_3.stopped,explanation_3.started,text_4.started,key_resp_3.started,explanation_3.stopped,key_resp_3.keys,key_resp_3.rt,key_resp_3.duration,explanation_1.started,text_explanation_1.started,key_resp.started,explanation_1.stopped,key_resp.keys,key_resp.rt,key_resp.duration,task1.started,key_replay1.started,text_recording1.started,sound1.started,text_recording1.stopped,sound1.stopped,text_recording2.started,sound2.started,text_recording2.stopped,sound2.stopped,text_recording3.started,sound3.started,text_recording3.stopped,sound3.stopped,key_resp_question1.started,text_question1.started,task1.stopped,key_resp_question1.keys,key_resp_question1.rt,key_resp_question1.duration,key_replay1.keys,key_replay1.rt,key_replay1.duration,replay_count,Bye.started,text_6.started,Bye.stopped,participant,session,date,expName,psychopyVersion,frameRate,expStart,
,,,,,,,,,,,,,,,,,,,,0.010037299944087863,0.024371799896471202,0.024371799896471202,18.687740799970925,space,18.647174300043844,None,,,,,,,,,,,,,,,,,,,,,,,,,,,,,,,,,,,,,,,,,,,,,,,,,,,,,,,,,,,,,,,,,,,,,,,,,,,,,,,,,,,,,,,,,,,,,,,Bertia,001,2024-02-04_22h17.15.421,M2_experiment1,2023.2.3,59.85515050590115,2024-02-04 22h17.34.087831 +0100,
,,,,,,,,,,,,,,,,,,,,,,,,,,,18.687780499923974,18.703534899977967,18.703534899977967,28.351393399992958,space,9.64285479998216,None,,,,,,,,,,,,,,,,,,,,,,,,,,,,,,,,,,,,,,,,,,,,,,,,,,,,,,,,,,,,,,,,,,,,,,,,,,,,,,,,,,,,,,,,Bertia,001,2024-02-04_22h17.15.421,M2_experiment1,2023.2.3,59.85515050590115,2024-02-04 22h17.34.087831 +0100,
,,,,,,,,,,,,,,,,,,,,,,,,,,,,,,,,,,28.351431699935347,28.367869299952872,28.367869299952872,44.54620579991024,space,16.16217519994825,None,,,,,,,,,,,,,,,,,,,,,,,,,,,,,,,,,,,,,,,,,,,,,,,,,,,,,,,,,,,,,,,,,,,,,,,,,,,,,,,,,Bertia,001,2024-02-04_22h17.15.421,M2_experiment1,2023.2.3,59.85515050590115,2024-02-04 22h17.34.087831 +0100,
,,,,,,,,,,,,,,,,,,,,,,,,,,,,,,,,,,,,,,,,,44.546244099969044,44.5610836999258,45.561370000010356,45.545271699898876,45.54529169993475,45.561370000010356,45.561370000010356,53.543158999993466,space,7.978467200067826,None,,,,,,,,,,,,,,,,,,,,,,,,,,,,,,,,,,,,,,,,,,,,,,,,,,,,,,,,,,,,,,,,,,,,,,Bertia,001,2024-02-04_22h17.15.421,M2_experiment1,2023.2.3,59.85515050590115,2024-02-04 22h17.34.087831 +0100,
,,,,,,,,,,,,,,,,,,,,,,,,,,,,,,,,,,,,,,,,,,,,,,,,,,,,53.54319849994499,53.569976400001906,54.55827209993731,54.55827091996325,60.041213499964215,space,5.477698400034569,None,,,,,,,,,,,,,,,,,,,,,,,,,,,,,,,,,,,,,,,,,,,,,,,,,,,,,,,,,,,,,,Bertia,001,2024-02-04_22h17.15.421,M2_experiment1,2023.2.3,59.85515050590115,2024-02-04 22h17.34.087831 +0100,
,,,,,,,,,,,,,,,,,,,,,,,,,,,,,,,,,,,,,,,,,,,,,,,,,,,,,,,,,,,,60.06636890000664,60.07882569998037,60.07882569998037,74.26939349994063,space,14.176144299912266,None,,,,,,,,,,,,,,,,,,,,,,,,,,,,,,,,,,,,,,,,,,,,,,,,,,,,,,,Bertia,001,2024-02-04_22h17.15.421,M2_experiment1,2023.2.3,59.85515050590115,2024-02-04 22h17.34.087831 +0100,
52,NotModifiedSH,resources/new_sounds_not_modified/M4swoosh.wav,0.736227123531279,None,None,None,None,e,M,0,0,0,28,,,,,74.3203002999071,,,,,,,,,,,,,,,,,,,,,,,,,,,,,,,,,,,,,,,,,,,,,,,,,74.30532459996175,74.3203002999071,74.78490169998258,0.4990299999481067,75.53463139990345,75.55127299996093,76.01775080000516,83.93327719997615,e,8.39641330006998,None,None,,,,,,,,,,,,,,,,,,,,,,,,,,,,,,,,,,,,,,,,,,,Bertia,001,2024-02-04_22h17.15.421,M2_experiment1,2023.2.3,59.85515050590115,2024-02-04 22h17.34.087831 +0100,
26,ModifiedSH,resources/new_sounds_2/F2fleshing.wav,0.620294784580499,None,None,None,None,r,F,0,1,1,2,,,,,83.95180699997582,,,,,,,,,,,,,,,,,,,,,,,,,,,,,,,,,,,,,,,,,,,,,,,,,83.93439680000301,83.95180699997582,84.44839789997786,0.5143551001092419,85.06439129996579,85.0814759999048,85.56458979996387,109.35808819998056,e,24.284311500028707,None,None,1.147452300065197,,,,,,,,,,,,,,,,,,,,,,,,,,,,,,,,,,,,,,,,,,Bertia,001,2024-02-04_22h17.15.421,M2_experiment1,2023.2.3,59.85515050590115,2024-02-04 22h17.34.087831 +0100,
27,ModifiedSH,resources/new_sounds_2/M4flesh.wav,0.722767978649223,None,None,None,None,r,M,0,2,2,3,,,,,109.3766217000084,,,,,,,,,,,,,,,,,,,,,,,,,,,,,,,,,,,,,,,,,,,,,,,,,109.35888249997515,109.3766217000084,109.87344769993797,0.514959399937652,110.58949929999653,110.60622809990309,111.08932349993847,113.7233151999535,e,3.131134699913673,None,None,,,,,,,,,,,,,,,,,,,,,,,,,,,,,,,,,,,,,,,,,,,Bertia,001,2024-02-04_22h17.15.421,M2_experiment1,2023.2.3,59.85515050590115,2024-02-04 22h17.34.087831 +0100,
38,ModifiedT,resources/new_sounds_2/M7butter.wav,0.44172335600907,None,None,None,None,r,M,0,3,3,14,,,,,113.74088029994164,,,,,,,,,,,,,,,,,,,,,,,,,,,,,,,,,,,,,,,,,,,,,,,,,113.72411319997627,113.74088029994164,114.23826089990325,0.5145184999564663,114.6713670999743,114.68814959994052,115.17125929996837,116.77231129992288,e,2.095937200007029,None,None,0.9644033999647945,,,,,,,,,,,,,,,,,,,,,,,,,,,,,,,,,,,,,,,,,,Bertia,001,2024-02-04_22h17.15.421,M2_experiment1,2023.2.3,59.85515050590115,2024-02-04 22h17.34.087831 +0100,
46,NotModifiedT,resources/new_sounds_not_modified/M6pet.wav,0.506976177381986,None,None,None,None,e,M,0,4,4,22,,,,,116.79088459990453,,,,,,,,,,,,,,,,,,,,,,,,,,,,,,,,,,,,,,,,,,,,,,,,,116.77309039991815,116.79088459990453,117.28720579994842,0.5144830000353977,117.78714099992067,117.80374070000835,118.2870337999193,119.15484420000575,e,1.3531637000851333,None,None,1.031015699962154,,,,,,,,,,,,,,,,,,,,,,,,,,,,,,,,,,,,,,,,,,Bertia,001,2024-02-04_22h17.15.421,M2_experiment1,2023.2.3,59.85515050590115,2024-02-04 22h17.34.087831 +0100,
36,NotModifiedT,resources/new_sounds_not_modified/F4lot.wav,0.386965569882676,None,None,None,None,e,F,0,5,5,12,,,,,119.17329469998367,,,,,,,,,,,,,,,,,,,,,,,,,,,,,,,,,,,,,,,,,,,,,,,,,119.15564249991439,119.17329469998367,119.6698245999869,0.5145537999924272,120.05291889992077,120.06966309994459,120.5528869999107,121.53759769990575,e,1.4789905999787152,None,None,0.914399900007993,,,,,,,,,,,,,,,,,,,,,,,,,,,,,,,,,,,,,,,,,,Bertia,001,2024-02-04_22h17.15.421,M2_experiment1,2023.2.3,59.85515050590115,2024-02-04 22h17.34.087831 +0100,
35,NotModifiedSH,resources/new_sounds_not_modified/M7mosh.wav,0.618134342110551,None,None,None,None,e,M,0,6,6,11,,,,,121.55507010000292,,,,,,,,,,,,,,,,,,,,,,,,,,,,,,,,,,,,,,,,,,,,,,,,,121.53840199997649,121.55507010000292,122.05228039994836,0.5142555000493303,122.66871339990757,122.68547409994062,123.16875049995724,130.41768499999307,e,7.7456238000886515,None,None,1.1474458000157028,,,,,,,,,,,,,,,,,,,,,,,,,,,,,,,,,,,,,,,,,,Bertia,001,2024-02-04_22h17.15.421,M2_experiment1,2023.2.3,59.85515050590115,2024-02-04 22h17.34.087831 +0100,
50,NotModifiedSH,resources/new_sounds_not_modified/M3dish.wav,0.409302075267592,None,None,None,None,e,M,0,7,7,26,,,,,130.43650660000276,,,,,,,,,,,,,,,,,,,,,,,,,,,,,,,,,,,,,,,,,,,,,,,,,130.41846559999976,130.43650660000276,130.93268929992337,0.5146005999995396,131.3325072999578,131.34920379996765,131.83234520000406,132.86692699999548,e,1.5265585000161082,None,None,0.9311060999752954,,,,,,,,,,,,,,,,,,,,,,,,,,,,,,,,,,,,,,,,,,Bertia,001,2024-02-04_22h17.15.421,M2_experiment1,2023.2.3,59.85515050590115,2024-02-04 22h17.34.087831 +0100,
30,ModifiedT,resources/new_sounds_2/F3footer.wav,0.597777777777778,None,None,None,None,r,F,0,8,8,6,,,,,132.88539670000318,,,,,,,,,,,,,,,,,,,,,,,,,,,,,,,,,,,,,,,,,,,,,,,,,132.86771409993526,132.88539670000318,133.3818388999207,0.5145149000454694,133.9651068999665,133.98178439994808,134.46482659992762,135.88249999994878,e,1.9004145000362769,None,None,1.1144354999996722,,,,,,,,,,,,,,,,,,,,,,,,,,,,,,,,,,,,,,,,,,Bertia,001,2024-02-04_22h17.15.421,M2_experiment1,2023.2.3,59.85515050590115,2024-02-04 22h17.34.087831 +0100,
33,ModifiedT,resources/new_sounds_2/M7fatter.wav,0.644739229024943,None,None,None,None,r,M,0,9,9,9,,,,,135.9001980999019,,,,,,,,,,,,,,,,,,,,,,,,,,,,,,,,,,,,,,,,,,,,,,,,,135.8832812999608,135.9001980999019,136.39737499994226,0.5144657000200823,137.03059370000847,137.04739879991394,137.530426699901,139.41467839991674,e,2.3805856000399217,None,None,1.1644893999909982,,,,,,,,,,,,,,,,,,,,,,,,,,,,,,,,,,,,,,,,,,Bertia,001,2024-02-04_22h17.15.421,M2_experiment1,2023.2.3,59.85515050590115,2024-02-04 22h17.34.087831 +0100,
54,NotModifiedSH,resources/new_sounds_not_modified/F5thrasher.wav,0.585496600933162,None,None,None,None,e,F,0,10,10,30,,,,,139.43332859990187,,,,,,,,,,,,,,,,,,,,,,,,,,,,,,,,,,,,,,,,,,,,,,,,,139.41553060000297,139.43332859990187,139.92968919989653,0.5145642999559641,140.51282929989975,140.54224350000732,141.01261669991072,142.4470078999875,e,1.9250822000904009,None,None,1.127116599935107,,,,,,,,,,,,,,,,,,,,,,,,,,,,,,,,,,,,,,,,,,Bertia,001,2024-02-04_22h17.15.421,M2_experiment1,2023.2.3,59.85515050590115,2024-02-04 22h17.34.087831 +0100,
42,NotModifiedT,resources/new_sounds_not_modified/F4feat.wav,0.478604920503187,None,None,None,None,e,F,0,11,11,18,,,,,142.4642731999047,,,,,,,,,,,,,,,,,,,,,,,,,,,,,,,,,,,,,,,,,,,,,,,,,142.44779050000943,142.4642731999047,142.9620525999926,0.5146272999700159,143.4284026999958,143.44520009995904,143.9283071999671,146.36238569999114,e,2.91963899997063,None,None,0.9977830999996513,,,,,,,,,,,,,,,,,,,,,,,,,,,,,,,,,,,,,,,,,,Bertia,001,2024-02-04_22h17.15.421,M2_experiment1,2023.2.3,59.85515050590115,2024-02-04 22h17.34.087831 +0100,
45,NotModifiedSH,resources/new_sounds_not_modified/F3mosh.wav,0.628649263052651,None,None,None,None,e,F,0,12,12,21,,,,,146.38081219990272,,,,,,,,,,,,,,,,,,,,,,,,,,,,,,,,,,,,,,,,,,,,,,,,,146.3631854999112,146.38081219990272,146.8773983999854,0.5145750999217853,147.4939413999673,147.5104599999031,147.99362590000965,148.8949257999193,e,1.3920556999510154,None,None,1.147633699933067,,,,,,,,,,,,,,,,,,,,,,,,,,,,,,,,,,,,,,,,,,Bertia,001,2024-02-04_22h17.15.421,M2_experiment1,2023.2.3,59.85515050590115,2024-02-04 22h17.34.087831 +0100,
44,ModifiedSH,resources/new_sounds_2/F2thrasher.wav,0.510249433106576,None,None,None,None,r,F,0,13,13,20,,,,,148.913368599955,,,,,,,,,,,,,,,,,,,,,,,,,,,,,,,,,,,,,,,,,,,,,,,,,148.89569709997158,148.913368599955,149.40982209995855,0.5144937000004575,149.9096045999322,149.92636659997515,150.40958069998305,151.5772739999229,e,1.659204400028102,None,None,1.031039199908264,,,,,,,,,,,,,,,,,,,,,,,,,,,,,,,,,,,,,,,,,,Bertia,001,2024-02-04_22h17.15.421,M2_experiment1,2023.2.3,59.85515050590115,2024-02-04 22h17.34.087831 +0100,
24,NotModifiedT,resources/new_sounds_not_modified/F1party.wav,0.63399526438517,None,None,None,None,e,F,0,14,14,0,,,,,151.59581059997436,,,,,,,,,,,,,,,,,,,,,,,,,,,,,,,,,,,,,,,,,,,,,,,,,151.5780447999714,151.59581059997436,152.09225149999838,0.5145743999164551,152.72550860000774,152.72550860000774,153.22520169999916,154.05986139993183,e,1.3292711999965832,None,None,1.148238699999638,,,,,,,,,,,,,,,,,,,,,,,,,,,,,,,,,,,,,,,,,,Bertia,001,2024-02-04_22h17.15.421,M2_experiment1,2023.2.3,59.85515050590115,2024-02-04 22h17.34.087831 +0100,
47,ModifiedT,resources/new_sounds_2/M6root.wav,0.557210884353742,None,None,None,None,r,M,0,15,15,23,,,,,154.07859679998364,,,,,,,,,,,,,,,,,,,,,,,,,,,,,,,,,,,,,,,,,,,,,,,,,154.0606381999096,154.07859679998364,154.57479069998953,0.5145146999275312,155.12453049991746,155.14122089999728,155.6244330999907,161.0074711999623,r,5.873195699998178,None,None,1.080944599932991,,,,,,,,,,,,,,,,,,,,,,,,,,,,,,,,,,,,,,,,,,Bertia,001,2024-02-04_22h17.15.421,M2_experiment1,2023.2.3,59.85515050590115,2024-02-04 22h17.34.087831 +0100,
49,NotModifiedT,resources/new_sounds_not_modified/M2lot.wav,0.466575772426751,None,None,None,None,e,M,0,16,16,25,,,,,161.02585539990105,,,,,,,,,,,,,,,,,,,,,,,,,,,,,,,,,,,,,,,,,,,,,,,,,161.00827180000488,161.02585539990105,161.52250650001224,0.514671599958092,161.98886599997059,161.98886599997059,162.4887435999699,164.07307119993493,e,2.082221499993466,None,None,0.9813887999625877,,,,,,,,,,,,,,,,,,,,,,,,,,,,,,,,,,,,,,,,,,Bertia,001,2024-02-04_22h17.15.421,M2_experiment1,2023.2.3,59.85515050590115,2024-02-04 22h17.34.087831 +0100,
51,NotModifiedSH,resources/new_sounds_not_modified/M4mosh.wav,0.573267020202984,None,None,None,None,e,M,0,17,17,27,,,,,164.0916788999457,,,,,,,,,,,,,,,,,,,,,,,,,,,,,,,,,,,,,,,,,,,,,,,,,164.07384869991802,164.0916788999457,164.58802529994864,0.5145465000532568,165.15451659995597,165.17120290000457,165.65439999999944,167.5878822999075,e,2.422861099941656,None,None,1.0977207000833005,,,,,,,,,,,,,,,,,,,,,,,,,,,,,,,,,,,,,,,,,,Bertia,001,2024-02-04_22h17.15.421,M2_experiment1,2023.2.3,59.85515050590115,2024-02-04 22h17.34.087831 +0100,
48,ModifiedT,resources/new_sounds_2/M3lottery.wav,0.649773242630385,None,None,None,None,r,M,0,18,18,24,,,,,167.6040746999206,,,,,,,,,,,,,,,,,,,,,,,,,,,,,,,,,,,,,,,,,,,,,,,,,167.58872229990084,167.6040746999206,168.1035561999306,0.5152071999618784,168.75343259994406,168.75343259994406,169.2535332000116,169.82118299999274,e,1.050959200016223,None,None,1.1655224999412894,,,,,,,,,,,,,,,,,,,,,,,,,,,,,,,,,,,,,,,,,,Bertia,001,2024-02-04_22h17.15.421,M2_experiment1,2023.2.3,59.85515050590115,2024-02-04 22h17.34.087831 +0100,
29,NotModifiedT,resources/new_sounds_2/M4getting.wav,0.612123590008089,None,None,None,None,e,M,0,19,19,5,,,,,169.83899289998226,,,,,,,,,,,,,,,,,,,,,,,,,,,,,,,,,,,,,,,,,,,,,,,,,169.82200239994563,169.83899289998226,170.33760709990747,0.5160235998919234,170.9360078999307,170.95273239992093,171.43586169998161,173.3533344999887,r,2.4149457999737933,None,None,1.131113599985838,,,,,,,,,,,,,,,,,,,,,,,,,,,,,,,,,,,,,,,,,,Bertia,001,2024-02-04_22h17.15.421,M2_experiment1,2023.2.3,59.85515050590115,2024-02-04 22h17.34.087831 +0100,
53,NotModifiedSH,resources/new_sounds_not_modified/M6fresher.wav,0.558439616650624,None,None,None,None,e,M,0,20,20,29,,,,,173.37165349989664,,,,,,,,,,,,,,,,,,,,,,,,,,,,,,,,,,,,,,,,,,,,,,,,,173.3541173998965,173.37165349989664,173.86829549993854,0.5145505999680609,174.41816289990675,174.4562187999254,174.91807199991308,175.43586369999684,e,1.0007631001062691,None,None,,,,,,,,,,,,,,,,,,,,,,,,,,,,,,,,,,,,,,,,,,,Bertia,001,2024-02-04_22h17.15.421,M2_experiment1,2023.2.3,59.85515050590115,2024-02-04 22h17.34.087831 +0100,
32,ModifiedT,resources/new_sounds_2/M2city.wav,0.658866213151928,None,None,None,None,r,M,0,21,21,8,,,,,175.45467919996008,,,,,,,,,,,,,,,,,,,,,,,,,,,,,,,,,,,,,,,,,,,,,,,,,175.43663779995404,175.45467919996008,175.95098439999856,0.514716999954544,176.60077999997884,176.6349642999703,177.1004915999947,178.5184093998978,e,1.9068344000261277,None,None,1.1986929000122473,,,,,,,,,,,,,,,,,,,,,,,,,,,,,,,,,,,,,,,,,,Bertia,001,2024-02-04_22h17.15.421,M2_experiment1,2023.2.3,59.85515050590115,2024-02-04 22h17.34.087831 +0100,
25,ModifiedSH,resources/new_sounds_2/F1swoosh.wav,0.770486715748874,None,None,None,None,r,F,0,22,22,1,,,,,178.53656699997373,,,,,,,,,,,,,,,,,,,,,,,,,,,,,,,,,,,,,,,,,,,,,,,,,178.51921319996472,178.53656699997373,179.03308939991985,0.5142593000782654,179.799846699927,179.81629589991644,180.29951769998297,181.40053719992284,r,1.5856829000404105,None,None,,,,,,,,,,,,,,,,,,,,,,,,,,,,,,,,,,,,,,,,,,,Bertia,001,2024-02-04_22h17.15.421,M2_experiment1,2023.2.3,59.85515050590115,2024-02-04 22h17.34.087831 +0100,
31,NotModifiedT,resources/new_sounds_not_modified/F3footer.wav,0.573733808005514,None,None,None,None,e,F,0,23,23,7,,,,,181.4177875999594,,,,,,,,,,,,,,,,,,,,,,,,,,,,,,,,,,,,,,,,,,,,,,,,,181.40133149991743,181.4177875999594,181.91571199998725,0.5147694000042975,182.48194510000758,182.49872619996313,182.9818621999584,185.5326610999182,e,3.0479032999137416,None,None,1.0977830999763682,,,,,,,,,,,,,,,,,,,,,,,,,,,,,,,,,,,,,,,,,,Bertia,001,2024-02-04_22h17.15.421,M2_experiment1,2023.2.3,59.85515050590115,2024-02-04 22h17.34.087831 +0100,
39,ModifiedSH,resources/new_sounds_2/M7fresher.wav,0.497256235827664,None,None,None,None,r,M,0,24,24,15,,,,,185.55099449993577,,,,,,,,,,,,,,,,,,,,,,,,,,,,,,,,,,,,,,,,,,,,,,,,,185.53348529990762,185.55099449993577,186.0476032999577,0.5145100000081584,186.53064519993495,186.5473437999608,187.03050399990752,188.64827869995497,e,2.1006494000321254,None,None,1.014245399972424,,,,,,,,,,,,,,,,,,,,,,,,,,,,,,,,,,,,,,,,,,Bertia,001,2024-02-04_22h17.15.421,M2_experiment1,2023.2.3,59.85515050590115,2024-02-04 22h17.34.087831 +0100,
40,ModifiedSH,resources/new_sounds_2/F5fresher.wav,0.567437641723356,None,None,None,None,r,F,0,25,25,16,,,,,188.66669260000344,,,,,,,,,,,,,,,,,,,,,,,,,,,,,,,,,,,,,,,,,,,,,,,,,188.64905669994187,188.66669260000344,189.1631279999856,0.5144387999316677,189.7329030999681,189.7329030999681,190.2294539998984,192.21370530000422,e,2.4773293000180274,None,None,,,,,,,,,,,,,,,,,,,,,,,,,,,,,,,,,,,,,,,,,,,Bertia,001,2024-02-04_22h17.15.421,M2_experiment1,2023.2.3,59.85515050590115,2024-02-04 22h17.34.087831 +0100,
43,NotModifiedT,resources/new_sounds_not_modified/F2feat.wav,0.644364234737267,None,None,None,None,e,F,0,26,26,19,,,,,192.2311682999134,,,,,,,,,,,,,,,,,,,,,,,,,,,,,,,,,,,,,,,,,,,,,,,,,192.21452869998757,192.2311682999134,192.728822199977,0.5146811000304297,193.36182999995071,193.37842039996758,193.86148209997918,195.2959968999494,e,1.925015600048937,None,None,1.1642789000179619,,,,,,,,,,,,,,,,,,,,,,,,,,,,,,,,,,,,,,,,,,Bertia,001,2024-02-04_22h17.15.421,M2_experiment1,2023.2.3,59.85515050590115,2024-02-04 22h17.34.087831 +0100,
37,ModifiedT,resources/new_sounds_2/F4lot.wav,0.449274376417234,None,None,None,None,r,F,0,27,27,13,,,,,195.3143068999052,,,,,,,,,,,,,,,,,,,,,,,,,,,,,,,,,,,,,,,,,,,,,,,,,195.29678759991657,195.3143068999052,195.81109939992893,0.5146984000457451,196.26077779999468,196.26077779999468,196.76061180001125,198.56147949991282,r,2.2903670999221504,None,None,0.9647957000415772,,,,,,,,,,,,,,,,,,,,,,,,,,,,,,,,,,,,,,,,,,Bertia,001,2024-02-04_22h17.15.421,M2_experiment1,2023.2.3,59.85515050590115,2024-02-04 22h17.34.087831 +0100,
28,ModifiedSH,resources/new_sounds_2/F3flushing.wav,0.687845804988662,None,None,None,None,r,F,0,28,28,4,,,,,198.57905790000223,,,,,,,,,,,,,,,,,,,,,,,,,,,,,,,,,,,,,,,,,,,,,,,,,198.5622947999509,198.57905790000223,199.0764346999349,0.514545900048688,199.75967189995572,199.79584819998126,200.25940939993598,201.24604050000198,r,1.4745004000142217,None,None,,,,,,,,,,,,,,,,,,,,,,,,,,,,,,,,,,,,,,,,,,,Bertia,001,2024-02-04_22h17.15.421,M2_experiment1,2023.2.3,59.85515050590115,2024-02-04 22h17.34.087831 +0100,
41,ModifiedT,resources/new_sounds_2/F4utter.wav,0.53952380952381,None,None,None,None,r,F,0,29,29,17,,,,,201.26225569995586,,,,,,,,,,,,,,,,,,,,,,,,,,,,,,,,,,,,,,,,,,,,,,,,,201.24693079991266,201.26225569995586,201.75911649991758,0.5125816999934614,202.29206099989824,202.30874929996207,202.79209899995476,203.8263094999129,e,1.516789500019513,None,None,1.0622112000128254,,,,,,,,,,,,,,,,,,,,,,,,,,,,,,,,,,,,,,,,,,Bertia,001,2024-02-04_22h17.15.421,M2_experiment1,2023.2.3,59.85515050590115,2024-02-04 22h17.34.087831 +0100,
34,ModifiedSH,resources/new_sounds_2/M7mosh.wav,0.486031746031746,None,None,None,None,r,M,0,30,30,10,,,,,203.84326709993184,,,,,,,,,,,,,,,,,,,,,,,,,,,,,,,,,,,,,,,,,,,,,,,,,203.82709979999345,203.84326709993184,204.34146329993382,0.5147356999805197,204.82453009998426,204.85393799992744,205.3245956999017,206.92545629991218,r,2.0980362999252975,None,None,,,,,,,,,,,,,,,,,,,,,,,,,,,,,,,,,,,,,,,,,,,Bertia,001,2024-02-04_22h17.15.421,M2_experiment1,2023.2.3,59.85515050590115,2024-02-04 22h17.34.087831 +0100,
,,,,,,,,,,,,,,,,,,,,,,,,,,,,,,,,,,,,,,,,,,,,,,,,,,,,,,,,,,,,,,,,,,,,,,,,,,,,,,,,206.92601159994956,206.9418390999781,206.9418390999781,225.75208249990828,space,18.80191779998131,None,,,,,,,,,,,,,,,,,,,,,,,,,,,,,,,,,,,Bertia,001,2024-02-04_22h17.15.421,M2_experiment1,2023.2.3,59.85515050590115,2024-02-04 22h17.34.087831 +0100,
,,,,,,,,,,,,,,,,,,,,,,,,,,,,,,,,,,,,,,,,,,,,,,,,,,,,,,,,,,,,,,,,,,,,,,,,,,,,,,,,,,,,,,,225.75212600000668,225.76850309991278,225.76850309991278,251.92652179999277,space,26.14427719998639,None,,,,,,,,,,,,,,,,,,,,,,,,,,,,Bertia,001,2024-02-04_22h17.15.421,M2_experiment1,2023.2.3,59.85515050590115,2024-02-04 22h17.34.087831 +0100,
14,ModifiedSH,resources/new_sounds_not_modified/F2bosh.wav,0.494392229081527,resources/new_sounds_not_modified/F5bot.wav,0.485673207115724,resources/new_sounds_2/F1bosh.wav,0.520634920634921,1,F,,,,,0,0,0,13,251.97211209998932,,,,,,,,,,,,,,,,,,,,,,,,,,,,,,,,,,,,,,,,,,,,,,,,,,,,,,,,,,,,,,,,,,,,,,,,,,,,251.95594229991548,251.97211209998932,252.44202159997076,0.5155658000148833,252.9416920999065,10.476880399975926,253.42488949990366,253.42486501998502,253.92674419994,262.4198591999011,254.4082392998971,254.4080245199264,254.94779979996383,262.4198591999011,254.94779979996383,255.44110989989713,264.0040943999775,e,9.039090499980375,None,p,7.300568800070323,None,1,,,,Bertia,001,2024-02-04_22h17.15.421,M2_experiment1,2023.2.3,59.85515050590115,2024-02-04 22h17.34.087831 +0100,
4,ModifiedT,resources/new_sounds_not_modified/M4mat.wav,0.4451593985921889,resources/new_sounds_2/M3mat.wav,0.494308390022676,resources/new_sounds_not_modified/M2mash.wav,0.7358947371573947,1,M,,,,,0,1,1,3,264.0197668999899,,,,,,,,,,,,,,,,,,,,,,,,,,,,,,,,,,,,,,,,,,,,,,,,,,,,,,,,,,,,,,,,,,,,,,,,,,,,264.0055056998972,264.0197668999899,264.51936159993056,0.5142432999564335,264.9688311999198,0.9637003999669105,265.45195309992414,265.4519149199012,265.96128719998524,265.96128719998524,266.4517047998961,266.45160201996333,267.20428269996773,267.20428269996773,267.18517049995717,267.6845250999322,271.8039156999439,t,4.613833699957468,None,None,,,0,,,,Bertia,001,2024-02-04_22h17.15.421,M2_experiment1,2023.2.3,59.85515050590115,2024-02-04 22h17.34.087831 +0100,
7,ModifiedSH,resources/new_sounds_2/M1bosh.wav,0.4574829931972789,resources/new_sounds_not_modified/M2bot.wav,0.415863975908209,resources/new_sounds_not_modified/M4bosh.wav,0.4533657452807347,3,M,,,,,0,2,2,6,271.82029559998773,,,,,,,,,,,,,,,,,,,,,,,,,,,,,,,,,,,,,,,,,,,,,,,,,,,,,,,,,,,,,,,,,,,,,,,,,,,,271.8047071999172,271.82029559998773,272.31847769999877,0.5141577000031248,272.78513769991696,0.9808057999471202,273.2682941999519,273.26811921993504,273.69759659992997,273.69759659992997,274.18456540000625,274.18455111993245,274.6546901999973,274.6546901999973,274.6343901999062,275.1343639999395,276.40258039999753,e,1.7662654001032934,None,None,,,0,,,,Bertia,001,2024-02-04_22h17.15.421,M2_experiment1,2023.2.3,59.85515050590115,2024-02-04 22h17.34.087831 +0100,
12,ModifiedSH,resources/new_sounds_not_modified/F4bot.wav,0.390471530438234,resources/new_sounds_not_modified/F3bosh.wav,0.505513996768869,resources/new_sounds_2/F2bosh.wav,0.423673469387755,2,F,,,,,0,3,3,11,276.4194761000108,,,,,,,,,,,,,,,,,,,,,,,,,,,,,,,,,,,,,,,,,,,,,,,,,,,,,,,,,,,,,,,,,,,,,,,,,,,,276.40342999994755,276.4194761000108,276.9171872999286,0.5141687000868842,277.3168820999563,0.9138581000734121,277.80007559992373,277.8002436199575,278.3189031999791,278.3189031999791,278.79963959997986,278.79984811997275,279.23609689995646,279.23609689995646,279.23609689995646,279.73277409991715,280.71762719994877,r,1.4724720999365672,None,None,,,0,,,,Bertia,001,2024-02-04_22h17.15.421,M2_experiment1,2023.2.3,59.85515050590115,2024-02-04 22h17.34.087831 +0100,
22,ModifiedSH,resources/new_sounds_not_modified/F1mash.wav,0.601753675244161,resources/new_sounds_2/F3mash.wav,0.42437641723356,resources/new_sounds_not_modified/F4mat.wav,0.401181209050264,3,F,,,,,0,4,4,21,280.73467889998574,,,,,,,,,,,,,,,,,,,,,,,,,,,,,,,,,,,,,,,,,,,,,,,,,,,,,,,,,,,,,,,,,,,,,,,,,,,,280.7184086999623,280.73467889998574,281.2323040999472,0.514268200029619,281.8599197999574,,282.3317978999112,282.33181431995473,282.7721983999945,282.7721983999945,283.2482062999625,283.24819731992903,283.6694473999087,283.6694473999087,283.648252199986,284.1479274999583,285.33282669994514,t,1.672136600012891,None,None,,,0,,,,Bertia,001,2024-02-04_22h17.15.421,M2_experiment1,2023.2.3,59.85515050590115,2024-02-04 22h17.34.087831 +0100,
17,ModifiedT,resources/new_sounds_2/M2bosh.wav,0.387165532879819,resources/new_sounds_not_modified/M6bot.wav,0.501070841911371,resources/new_sounds_not_modified/M5bosh.wav,0.597358038485993,2,M,,,,,0,5,5,16,285.3500436999602,,,,,,,,,,,,,,,,,,,,,,,,,,,,,,,,,,,,,,,,,,,,,,,,,,,,,,,,,,,,,,,,,,,,,,,,,,,,285.33367969992105,285.3500436999602,285.8473822999513,0.5141071999678388,286.26518270000815,,286.7303357999772,286.7304925199249,287.2499076999957,287.2499076999957,287.73001589998603,287.7302030199324,288.3373249999713,288.3373249999713,288.3373249999713,288.8297978999326,289.5981546000112,r,1.250970400054939,None,None,,,0,,,,Bertia,001,2024-02-04_22h17.15.421,M2_experiment1,2023.2.3,59.85515050590115,2024-02-04 22h17.34.087831 +0100,
10,ModifiedT,resources/new_sounds_not_modified/M2fit.wav,0.423218058079414,resources/new_sounds_not_modified/M5fish.wav,0.451129071842058,resources/new_sounds_2/M4fit.wav,0.597210884353741,1,M,,,,,0,6,6,9,289.6153318999568,,,,,,,,,,,,,,,,,,,,,,,,,,,,,,,,,,,,,,,,,,,,,,,,,,,,,,,,,,,,,,,,,,,,,,,,,,,,289.5989881999558,289.6153318999568,290.1125782999443,0.513986200094223,290.56097469991073,,291.0288771999767,291.0291115199332,291.49958770000376,291.49958770000376,291.9785882999422,291.9787184199202,292.58702679991256,292.58702679991256,292.58702679991256,293.07830910000484,293.5136347999796,r,0.9229287999914959,None,None,,,0,,,,Bertia,001,2024-02-04_22h17.15.421,M2_experiment1,2023.2.3,59.85515050590115,2024-02-04 22h17.34.087831 +0100,
9,ModifiedSH,resources/new_sounds_not_modified/M4bot.wav,0.453615769026229,resources/new_sounds_not_modified/M3bosh.wav,0.524217377306996,resources/new_sounds_2/M2bosh.wav,0.387165532879819,2,M,,,,,0,7,7,8,293.5308110999176,,,,,,,,,,,,,,,,,,,,,,,,,,,,,,,,,,,,,,,,,,,,,,,,,,,,,,,,,,,,,,,,,,,,,,,,,,,,293.514443699969,293.5308110999176,294.0279596999753,0.513890300062485,294.4944939999841,0.9804223000537604,294.9776278999634,294.9775479199714,295.5140591999516,295.5140591999516,295.99391199997626,295.99413731998067,296.3969808999682,296.3969808999682,296.3969808999682,296.8936673999997,297.16234779998194,r,0.7604192999424413,None,None,,,0,,,,Bertia,001,2024-02-04_22h17.15.421,M2_experiment1,2023.2.3,59.85515050590115,2024-02-04 22h17.34.087831 +0100,
15,ModifiedSH,resources/new_sounds_not_modified/M2fish.wav,0.602031419699607,resources/new_sounds_not_modified/M5fit.wav,0.593107043618346,resources/new_sounds_2/M1fish.wav,0.512562358276644,1,M,,,,,0,8,8,14,297.1796137999045,,,,,,,,,,,,,,,,,,,,,,,,,,,,,,,,,,,,,,,,,,,,,,,,,,,,,,,,,,,,,,,,,,,,,,,,,,,,297.16318479995243,297.1796137999045,297.6766293999972,0.5138404000317678,298.29312229994684,1.1303287000628188,298.7763111999957,298.77627271997045,299.3805879999418,299.3805879999418,299.8592929999577,299.8593848199933,300.38259870000184,300.38259870000184,300.38259870000184,300.8755998999113,301.6441637999378,t,1.2595678000943735,None,None,,,0,,,,Bertia,001,2024-02-04_22h17.15.421,M2_experiment1,2023.2.3,59.85515050590115,2024-02-04 22h17.34.087831 +0100,
20,ModifiedSH,resources/new_sounds_2/F2push.wav,0.418027210884354,resources/new_sounds_not_modified/F4push.wav,0.436144678520506,resources/new_sounds_not_modified/F3put.wav,0.437781204290985,2,F,,,,,0,9,9,19,301.66123319999315,,,,,,,,,,,,,,,,,,,,,,,,,,,,,,,,,,,,,,,,,,,,,,,,,,,,,,,,,,,,,,,,,,,,,,,,,,,,301.64499339996837,301.66123319999315,302.1585311999079,0.5139355999417603,302.6054728999734,,303.0750737999333,303.07487391995966,303.53739690000657,303.53739690000657,304.0079209000105,304.00799501991133,304.4656032999046,304.4656032999046,304.44115749991033,304.9410064999247,307.14233379997313,e,2.697761100018397,None,None,,,0,,,,Bertia,001,2024-02-04_22h17.15.421,M2_experiment1,2023.2.3,59.85515050590115,2024-02-04 22h17.34.087831 +0100,
2,ModifiedSh,resources/new_sounds_not_modified/F2fish.wav,0.528250066930233,resources/new_sounds_2/F1fit.wav,0.423218058079413,resources/new_sounds_not_modified/F5fit.wav,0.2975247836995,3,F,,,,,0,10,10,1,307.15958839992527,,,,,,,,,,,,,,,,,,,,,,,,,,,,,,,,,,,,,,,,,,,,,,,,,,,,,,,,,,,,,,,,,,,,,,,,,,,,307.14315029990394,307.15958839992527,307.6567777999444,0.5140158000867814,308.1898064999841,1.0470396000891924,308.6729691999499,308.67295781989816,309.11800649994984,309.11800649994984,309.60606889997143,309.60613531993005,309.9177781000035,309.9177781000035,309.9177781000035,310.4059418999823,311.85743239999283,e,1.9320972000714391,None,None,,,0,,,,Bertia,001,2024-02-04_22h17.15.421,M2_experiment1,2023.2.3,59.85515050590115,2024-02-04 22h17.34.087831 +0100,
3,ModifiedT,resources/new_sounds_2/F5mat.wav,0.565396825396825,resources/new_sounds_not_modified/F4mash.wav,0.38066522534541036,resources/new_sounds_not_modified/F2mat.wav,0.5007174554648515,3,F,,,,,0,11,11,2,311.8746959998971,,,,,,,,,,,,,,,,,,,,,,,,,,,,,,,,,,,,,,,,,,,,,,,,,,,,,,,,,,,,,,,,,,,,,,,,,,,,311.8582916999003,311.8746959998971,312.371793899918,0.513900600024499,312.93862119992264,1.0807248000055552,313.43804659997113,313.4380438199849,313.8290061999578,313.8290061999578,314.30445369996596,314.3045068199397,314.81764489994384,314.81764489994384,314.81764489994384,315.30419920000713,316.7055955999531,r,1.8839574999874458,None,None,,,0,,,,Bertia,001,2024-02-04_22h17.15.421,M2_experiment1,2023.2.3,59.85515050590115,2024-02-04 22h17.34.087831 +0100,
13,ModifiedT,resources/new_sounds_not_modified/F1fish.wav,0.519196656146427,resources/new_sounds_not_modified/F4fit.wav,0.297524783699501,resources/new_sounds_2/F2fit.wav,0.443741496598639,2,F,,,,,0,12,12,12,316.722475699964,,,,,,,,,,,,,,,,,,,,,,,,,,,,,,,,,,,,,,,,,,,,,,,,,,,,,,,,,,,,,,,,,,,,,,,,,,,,316.7063913999591,316.722475699964,317.22015909990296,0.5141413999954239,317.76701109996065,,318.2365577999735,318.23671421991895,318.5449874999467,318.5449874999467,319.03616799996234,319.03630612000126,319.49164219992235,319.49164219992235,319.4694264999125,319.9693343999097,321.13761169998907,e,1.6654270000290126,None,None,,,0,,,,Bertia,001,2024-02-04_22h17.15.421,M2_experiment1,2023.2.3,59.85515050590115,2024-02-04 22h17.34.087831 +0100,
6,ModifiedT,resources/new_sounds_not_modified/M1met.wav,0.532038259057699,resources/new_sounds_2/M3met.wav,0.558503401360544,resources/new_sounds_not_modified/M5mesh.wav,0.5032130872900709,1,M,,,,,0,13,13,5,321.15486509993207,,,,,,,,,,,,,,,,,,,,,,,,,,,,,,,,,,,,,,,,,,,,,,,,,,,,,,,,,,,,,,,,,,,,,,,,,,,,321.1384285999229,321.15486509993207,321.6520675999345,0.5140326999826357,322.18520189996343,1.04716279997956,322.68515969999135,322.68495581998724,323.2710780999623,,323.7346230999101,323.7346952199121,324.2541548999725,324.2541548999725,324.23445559991524,324.7343741999939,326.73556159995496,r,2.4893314000219107,None,None,,,0,,,,Bertia,001,2024-02-04_22h17.15.421,M2_experiment1,2023.2.3,59.85515050590115,2024-02-04 22h17.34.087831 +0100,
21,ModifiedSH,resources/new_sounds_not_modified/F5fish.wav,0.478583202882902,resources/new_sounds_2/F4fish.wav,0.366258503401361,resources/new_sounds_not_modified/F2fit.wav,0.374261916532497,3,F,,,,,0,14,14,20,326.7523957999656,,,,,,,,,,,,,,,,,,,,,,,,,,,,,,,,,,,,,,,,,,,,,,,,,,,,,,,,,,,,,,,,,,,,,,,,,,,,326.7363405999495,326.7523957999656,327.2500842999434,0.5141165000386536,327.7334535999689,0.997487899963744,328.21650849992875,328.2165601198911,328.59372449992225,328.59372449992225,329.082892299979,329.08284321998946,329.4719421999762,329.4719421999762,329.4719421999762,329.96589509991463,330.9842103999108,r,1.4980880999937654,None,None,,,0,,,,Bertia,001,2024-02-04_22h17.15.421,M2_experiment1,2023.2.3,59.85515050590115,2024-02-04 22h17.34.087831 +0100,
16,ModifiedT,resources/new_sounds_2/M2fit.wav,0.646553287981859,resources/new_sounds_not_modified/M4fit.wav,0.508424667314028,resources/new_sounds_not_modified/M5fish.wav,0.451129071842058,2,M,,,,,0,15,15,15,331.0016099999193,,,,,,,,,,,,,,,,,,,,,,,,,,,,,,,,,,,,,,,,,,,,,,,,,,,,,,,,,,,,,,,,,,,,,,,,,,,,330.9850246999413,331.0016099999193,331.49871319998056,0.5140667000086978,332.14845059998333,1.1637983000837266,332.63162889995147,332.63168661996025,333.15572799998336,333.15572799998336,333.64799979992677,333.648030019959,334.1190706999041,334.1190706999041,334.09778189996723,334.5976916999789,335.8661300999811,t,1.760630900040269,None,None,,,0,,,,Bertia,001,2024-02-04_22h17.15.421,M2_experiment1,2023.2.3,59.85515050590115,2024-02-04 22h17.34.087831 +0100,
1,ModifiedT,resources/new_sounds_not_modified/F2fit.wav,0.374261916532496,resources/new_sounds_not_modified/F5fish.wav,0.478583202882902,resources/new_sounds_2/F4fit.wav,0.41736473916697,1,F,,,,,0,16,16,0,335.8830768999178,,,,,,,,,,,,,,,,,,,,,,,,,,,,,,,,,,,,,,,,,,,,,,,,,,,,,,,,,,,,,,,,,,,,,,,,,,,,335.8669375999598,335.8830768999178,336.3804181999294,0.5138553000288084,336.7635752999922,0.8970102000748739,337.2468072999036,337.24676962000086,337.7364815999754,337.7364815999754,338.2297704999801,338.22979541997194,338.646391499904,,338.646391499904,339.1461671999423,339.79786839999724,r,1.1433027000166476,None,None,,,0,,,,Bertia,001,2024-02-04_22h17.15.421,M2_experiment1,2023.2.3,59.85515050590115,2024-02-04 22h17.34.087831 +0100,
5,ModifiedT,resources/new_sounds_not_modified/F4met.wav,0.44494520825283956,resources/new_sounds_2/F2met.wav,0.634104308390023,resources/new_sounds_not_modified/F1mesh.wav,0.5571319490698841,1,F,,,,,0,17,17,4,339.8152406999143,,,,,,,,,,,,,,,,,,,,,,,,,,,,,,,,,,,,,,,,,,,,,,,,,,,,,,,,,,,,,,,,,,,,,,,,,,,,339.7986641000025,339.8152406999143,340.31236009998247,0.5140767999691889,340.76233209995553,0.9640441000228748,341.245409199968,341.2454379199888,341.89153249992523,341.89153249992523,342.3783848999301,342.37838661997813,342.958210999961,342.958210999961,342.958210999961,343.444697799976,343.646648599999,r,0.6850356999784708,None,None,,,0,,,,Bertia,001,2024-02-04_22h17.15.421,M2_experiment1,2023.2.3,59.85515050590115,2024-02-04 22h17.34.087831 +0100,
18,ModifiedT,resources/new_sounds_2/M2put.wav,0.532199546485261,resources/new_sounds_not_modified/M7put.wav,0.410382098763918,resources/new_sounds_not_modified/M5push.wav,0.499025816019625,2,M,,,,,0,18,18,17,343.66395399998873,,,,,,,,,,,,,,,,,,,,,,,,,,,,,,,,,,,,,,,,,,,,,,,,,,,,,,,,,,,,,,,,,,,,,,,,,,,,343.64746399992146,343.66395399998873,344.1612354000099,0.5141553999856114,344.6941671000095,1.0470825999509543,345.1940837999573,345.19407071989264,345.61815599992406,345.61815599992406,346.09379539999645,346.0937696199515,346.6070164999692,346.6070164999692,346.6070164999692,347.09352479991503,347.8619852999691,t,1.2455422999337316,None,None,,,0,,,,Bertia,001,2024-02-04_22h17.15.421,M2_experiment1,2023.2.3,59.85515050590115,2024-02-04 22h17.34.087831 +0100,
8,ModifiedSH,resources/new_sounds_not_modified/M3bot.wav,0.368685295497059,resources/new_sounds_not_modified/M1bosh.wav,0.5055628425466665,resources/new_sounds_2/M5bosh.wav,0.4857823129251701,2,M,,,,,0,19,19,7,347.8792259999318,,,,,,,,,,,,,,,,,,,,,,,,,,,,,,,,,,,,,,,,,,,,,,,,,,,,,,,,,,,,,,,,,,,,,,,,,,,,347.8628077999456,347.8792259999318,348.376253800001,0.5138253000332043,348.7596403999487,0.8972080000676215,349.2439552999567,349.24323361996795,349.76343139994424,349.76343139994424,350.2424759999849,350.24252031989164,350.74539249995723,350.74539249995723,350.725516699953,351.2254491999047,351.92713580001146,r,1.188101900042966,None,None,,,0,,,,Bertia,001,2024-02-04_22h17.15.421,M2_experiment1,2023.2.3,59.85515050590115,2024-02-04 22h17.34.087831 +0100,
11,ModifiedSH,resources/new_sounds_not_modified/M1fish.wav,0.569506825661794,resources/new_sounds_2/M7fit.wav,0.485691609977324,resources/new_sounds_not_modified/M3fit.wav,0.479334255844424,3,M,,,,,0,20,20,10,351.9444724000059,,,,,,,,,,,,,,,,,,,,,,,,,,,,,,,,,,,,,,,,,,,,,,,,,,,,,,,,,,,,,,,,,,,,,,,,,,,,351.92794149997644,351.9444724000059,352.44179109996185,0.5142232999205589,353.0247095999075,1.0971435999963433,353.5079562999308,353.5080800199765,354.0076951999217,354.0076951999217,354.4909597999649,354.4909469199018,354.9805874999147,354.9805874999147,354.9805874999147,355.4739791000029,356.2589115999872,e,1.26558250002563,None,None,,,0,,,,Bertia,001,2024-02-04_22h17.15.421,M2_experiment1,2023.2.3,59.85515050590115,2024-02-04 22h17.34.087831 +0100,
19,ModifiedT,resources/new_sounds_2/F2put.wav,0.521360544217687,resources/new_sounds_not_modified/F4push.wav,0.436144678520506,resources/new_sounds_not_modified/F5put.wav,0.363522850118329,2,F,,,,,0,21,21,18,356.275977699901,,,,,,,,,,,,,,,,,,,,,,,,,,,,,,,,,,,,,,,,,,,,,,,,,,,,,,,,,,,,,,,,,,,,,,,,,,,,356.259747199947,356.275977699901,356.7735354999313,0.5141924999188632,357.3067393999081,1.0473866999382153,357.7897925999714,357.7898981199949,358.2443526999559,358.2443526999559,358.7229213999817,358.7228795199306,359.10106949997135,359.10106949997135,359.10106949997135,359.58928109996486,360.2410078999819,r,1.1279290999518707,None,None,,,0,,,,Bertia,001,2024-02-04_22h17.15.421,M2_experiment1,2023.2.3,59.85515050590115,2024-02-04 22h17.34.087831 +0100,
,,,,,,,,,,,,,,,,,,,,,,,,,,,,,,,,,,,,,,,,,,,,,,,,,,,,,,,,,,,,,,,,,,,,,,,,,,,,,,,,,,,,,,,,,,,,,,,,,,,,,,,,,,,,,,,,,,,,,,360.2415767000057,360.25641059991904,363.2549434999237,,,,,,,,
