ItemNb,Condition,Sound1,DurationSound1,Sound2,DurationSound2,Sound3,DurationSound3,ExpectedKey,Condition2,trials_task3.thisRepN,trials_task3.thisTrialN,trials_task3.thisN,trials_task3.thisIndex,trials_task1.thisRepN,trials_task1.thisTrialN,trials_task1.thisN,trials_task1.thisIndex,thisRow.t,notes,Welcome.started,textWelcomeMessage.started,keyWelcome.started,Welcome.stopped,keyWelcome.keys,keyWelcome.rt,keyWelcome.duration,Welcome_2.started,textWelcome2.started,key_resp_5.started,Welcome_2.stopped,key_resp_5.keys,key_resp_5.rt,key_resp_5.duration,Welcome_3.started,textWelcome3.started,key_resp_6.started,Welcome_3.stopped,key_resp_6.keys,key_resp_6.rt,key_resp_6.duration,blank.started,blank1.started,blank.stopped,volume_explanation.started,text_volume.started,key_resp_8.started,volume_explanation.stopped,key_resp_8.keys,key_resp_8.rt,key_resp_8.duration,volume.started,text_2.started,key_resp_7.started,sound_testvolume.started,volume.stopped,key_resp_7.keys,key_resp_7.rt,key_resp_7.duration,explanation.started,text.started,key_info_oddity.started,explanation.stopped,key_info_oddity.keys,key_info_oddity.rt,key_info_oddity.duration,task3.started,key_replay3.started,text_recording1_3.started,sound1_3.started,text_recording1_3.stopped,sound1_3.stopped,key_resp_question3.started,text_questiontask3.started,task3.stopped,key_resp_question3.keys,key_resp_question3.rt,key_resp_question3.duration,key_replay3.keys,explanation_3.started,text_4.started,key_resp_3.started,explanation_3.stopped,key_resp_3.keys,key_resp_3.rt,key_resp_3.duration,explanation_1.started,text_explanation_1.started,key_resp.started,explanation_1.stopped,key_resp.keys,key_resp.rt,key_resp.duration,task1.started,key_replay1.started,text_recording1.started,sound1.started,text_recording1.stopped,sound1.stopped,text_recording2.started,sound2.started,text_recording2.stopped,sound2.stopped,text_recording3.started,sound3.started,text_recording3.stopped,sound3.stopped,key_resp_question1.started,text_question1.started,task1.stopped,key_resp_question1.keys,key_resp_question1.rt,key_resp_question1.duration,key_replay1.keys,replay_count,Bye.started,text_6.started,Bye.stopped,participant,session,date,expName,psychopyVersion,frameRate,expStart,
,,,,,,,,,,,,,,,,,,,,0.034733799984678626,0.05810140003450215,0.05810140003450215,5.004233099985868,space,4.932835299987346,None,,,,,,,,,,,,,,,,,,,,,,,,,,,,,,,,,,,,,,,,,,,,,,,,,,,,,,,,,,,,,,,,,,,,,,,,,,,,,,,,,,,,,,,,,,,,Bow,001,2024-02-06_20h31.09.911,M2_experiment1,2023.2.3,59.929618650170134,2024-02-06 20h31.24.243387 +0100,
,,,,,,,,,,,,,,,,,,,,,,,,,,,5.004271100042388,5.019526500022039,5.019526500022039,6.621396400034428,space,1.5989641000051051,None,,,,,,,,,,,,,,,,,,,,,,,,,,,,,,,,,,,,,,,,,,,,,,,,,,,,,,,,,,,,,,,,,,,,,,,,,,,,,,,,,,,,,Bow,001,2024-02-06_20h31.09.911,M2_experiment1,2023.2.3,59.929618650170134,2024-02-06 20h31.24.243387 +0100,
,,,,,,,,,,,,,,,,,,,,,,,,,,,,,,,,,,6.621431899955496,6.637730799964629,6.637730799964629,14.390760599984787,space,7.749017900088802,None,,,,,,,,,,,,,,,,,,,,,,,,,,,,,,,,,,,,,,,,,,,,,,,,,,,,,,,,,,,,,,,,,,,,,,,,,,,,,,Bow,001,2024-02-06_20h31.09.911,M2_experiment1,2023.2.3,59.929618650170134,2024-02-06 20h31.24.243387 +0100,
,,,,,,,,,,,,,,,,,,,,,,,,,,,,,,,,,,,,,,,,,14.390795800019987,14.415377199999057,15.401382299955003,15.40139969997108,15.41786389995832,15.41786389995832,21.300321100046858,space,5.880713500082493,None,,,,,,,,,,,,,,,,,,,,,,,,,,,,,,,,,,,,,,,,,,,,,,,,,,,,,,,,,,,,,,,,,,,,Bow,001,2024-02-06_20h31.09.911,M2_experiment1,2023.2.3,59.929618650170134,2024-02-06 20h31.24.243387 +0100,
,,,,,,,,,,,,,,,,,,,,,,,,,,,,,,,,,,,,,,,,,,,,,,,,,,,21.300355599960312,21.32719260000158,22.315613099955954,22.31547898997087,25.49890989996493,space,3.1730974999954924,None,,,,,,,,,,,,,,,,,,,,,,,,,,,,,,,,,,,,,,,,,,,,,,,,,,,,,,,,,,,,Bow,001,2024-02-06_20h31.09.911,M2_experiment1,2023.2.3,59.929618650170134,2024-02-06 20h31.24.243387 +0100,
,,,,,,,,,,,,,,,,,,,,,,,,,,,,,,,,,,,,,,,,,,,,,,,,,,,,,,,,,,,25.52667020005174,25.539308100007474,25.539308100007474,30.797251099953428,space,5.252070900052786,None,,,,,,,,,,,,,,,,,,,,,,,,,,,,,,,,,,,,,,,,,,,,,,,,,,,,,Bow,001,2024-02-06_20h31.09.911,M2_experiment1,2023.2.3,59.929618650170134,2024-02-06 20h31.24.243387 +0100,
38,ModifiedT,resources/new_sounds_2/M7butter.wav,0.44172335600907,None,None,None,None,r,M,0,0,0,14,,,,,30.847592400037684,,,,,,,,,,,,,,,,,,,,,,,,,,,,,,,,,,,,,,,,,,,,,,,,30.835114900022745,30.847592400037684,31.299870499991812,0.5027594000566751,31.772395299980417,0.9469810000155121,31.772395299980417,32.260880499961786,34.21135949995369,e,2.4126132000237703,None,None,,,,,,,,,,,,,,,,,,,,,,,,,,,,,,,,,,,,,,,,Bow,001,2024-02-06_20h31.09.911,M2_experiment1,2023.2.3,59.929618650170134,2024-02-06 20h31.24.243387 +0100,
37,ModifiedT,resources/new_sounds_2/F4lot.wav,0.449274376417234,None,None,None,None,r,F,0,1,1,13,,,,,34.22875040001236,,,,,,,,,,,,,,,,,,,,,,,,,,,,,,,,,,,,,,,,,,,,,,,,34.21297280001454,34.22875040001236,34.71191259997431,0.4994700000388548,35.16171680006664,0.9498340000864118,35.16171680006664,35.66223929997068,36.27921129995957,r,1.1142818999942392,None,None,,,,,,,,,,,,,,,,,,,,,,,,,,,,,,,,,,,,,,,,Bow,001,2024-02-06_20h31.09.911,M2_experiment1,2023.2.3,59.929618650170134,2024-02-06 20h31.24.243387 +0100,
29,NotModifiedT,resources/new_sounds_2/M4getting.wav,0.612123590008089,None,None,None,None,e,M,0,2,2,5,,,,,36.295054599992,,,,,,,,,,,,,,,,,,,,,,,,,,,,,,,,,,,,,,,,,,,,,,,,36.27998230000958,36.295054599992,36.796049700002186,0.5165123000042513,37.41212200000882,1.1333023000042886,37.41212200000882,37.893557199975476,38.44477129995357,r,1.0209915000014007,None,None,,,,,,,,,,,,,,,,,,,,,,,,,,,,,,,,,,,,,,,,Bow,001,2024-02-06_20h31.09.911,M2_experiment1,2023.2.3,59.929618650170134,2024-02-06 20h31.24.243387 +0100,
42,NotModifiedT,resources/new_sounds_not_modified/F4feat.wav,0.478604920503187,None,None,None,None,e,F,0,3,3,18,,,,,38.46060170000419,,,,,,,,,,,,,,,,,,,,,,,,,,,,,,,,,,,,,,,,,,,,,,,,38.445602099993266,38.46060170000419,38.961989199975505,0.5168200000189245,39.44433470000513,0.9991816999390721,39.42728479998186,39.92944570002146,40.06939990003593,e,0.6271704999962822,None,None,,,,,,,,,,,,,,,,,,,,,,,,,,,,,,,,,,,,,,,,Bow,001,2024-02-06_20h31.09.911,M2_experiment1,2023.2.3,59.929618650170134,2024-02-06 20h31.24.243387 +0100,
40,ModifiedSH,resources/new_sounds_2/F5fresher.wav,0.567437641723356,None,None,None,None,r,F,0,4,4,16,,,,,40.08546600001864,,,,,,,,,,,,,,,,,,,,,,,,,,,,,,,,,,,,,,,,,,,,,,,,40.071141400025226,40.08546600001864,40.57820710004307,0.5078551999758929,41.16092529997695,,41.16092529997695,41.64601619995665,42.05048380000517,e,0.8708279000129551,None,None,,,,,,,,,,,,,,,,,,,,,,,,,,,,,,,,,,,,,,,,Bow,001,2024-02-06_20h31.09.911,M2_experiment1,2023.2.3,59.929618650170134,2024-02-06 20h31.24.243387 +0100,
51,NotModifiedSH,resources/new_sounds_not_modified/M4mosh.wav,0.573267020202984,None,None,None,None,e,M,0,5,5,27,,,,,42.06681650003884,,,,,,,,,,,,,,,,,,,,,,,,,,,,,,,,,,,,,,,,,,,,,,,,42.05258540005889,42.06681650003884,42.560792200034484,0.5090706000337377,43.14207279996481,1.0902953000040725,43.12546490004752,43.62590560002718,44.20756510004867,e,1.0567435000557452,None,None,,,,,,,,,,,,,,,,,,,,,,,,,,,,,,,,,,,,,,,,Bow,001,2024-02-06_20h31.09.911,M2_experiment1,2023.2.3,59.929618650170134,2024-02-06 20h31.24.243387 +0100,
28,ModifiedSH,resources/new_sounds_2/F3flushing.wav,0.687845804988662,None,None,None,None,r,F,0,6,6,4,,,,,44.22492329997476,,,,,,,,,,,,,,,,,,,,,,,,,,,,,,,,,,,,,,,,,,,,,,,,44.20858059998136,44.22492329997476,44.7083104000194,0.500216200016439,45.40790850005578,1.2003260999917984,45.40790850005578,45.90843119996134,46.34423990000505,e,0.9246046000625938,None,None,,,,,,,,,,,,,,,,,,,,,,,,,,,,,,,,,,,,,,,,Bow,001,2024-02-06_20h31.09.911,M2_experiment1,2023.2.3,59.929618650170134,2024-02-06 20h31.24.243387 +0100,
24,NotModifiedT,resources/new_sounds_not_modified/F1party.wav,0.63399526438517,None,None,None,None,e,F,0,7,7,0,,,,,46.360957400058396,,,,,,,,,,,,,,,,,,,,,,,,,,,,,,,,,,,,,,,,,,,,,,,,46.345269500045106,46.360957400058396,46.85730639996473,0.5125286000547931,47.49082880001515,1.1466238000430167,47.49082880001515,,47.89258920005523,e,0.39803329994902015,None,None,,,,,,,,,,,,,,,,,,,,,,,,,,,,,,,,,,,,,,,,Bow,001,2024-02-06_20h31.09.911,M2_experiment1,2023.2.3,59.929618650170134,2024-02-06 20h31.24.243387 +0100,
49,NotModifiedT,resources/new_sounds_not_modified/M2lot.wav,0.466575772426751,None,None,None,None,e,M,0,8,8,25,,,,,47.90940859995317,,,,,,,,,,,,,,,,,,,,,,,,,,,,,,,,,,,,,,,,,,,,,,,,47.89356959995348,47.90940859995317,48.40722359996289,0.5141733000054955,48.87339239998255,0.9808468000264838,48.87339239998255,49.37422630004585,50.778334800037555,e,1.8886525999987498,None,None,,,,,,,,,,,,,,,,,,,,,,,,,,,,,,,,,,,,,,,,Bow,001,2024-02-06_20h31.09.911,M2_experiment1,2023.2.3,59.929618650170134,2024-02-06 20h31.24.243387 +0100,
47,ModifiedT,resources/new_sounds_2/M6root.wav,0.557210884353742,None,None,None,None,r,M,0,9,9,23,,,,,50.79304979997687,,,,,,,,,,,,,,,,,,,,,,,,,,,,,,,,,,,,,,,,,,,,,,,,50.77934380003717,50.79304979997687,51.28941710002255,0.5105482999933884,51.85563710005954,1.0767695000395179,51.83900350006297,52.34373429999687,52.61490919999778,r,0.7487872000783682,None,None,,,,,,,,,,,,,,,,,,,,,,,,,,,,,,,,,,,,,,,,Bow,001,2024-02-06_20h31.09.911,M2_experiment1,2023.2.3,59.929618650170134,2024-02-06 20h31.24.243387 +0100,
32,ModifiedT,resources/new_sounds_2/M2city.wav,0.658866213151928,None,None,None,None,r,M,0,10,10,8,,,,,52.63387130002957,,,,,,,,,,,,,,,,,,,,,,,,,,,,,,,,,,,,,,,,,,,,,,,,52.61754809995182,52.63387130002957,53.12663369998336,0.5102127999998629,53.792099399957806,1.1756174999754876,53.77592559996992,54.2894382000668,54.528170000063255,e,0.7451063999906182,None,None,,,,,,,,,,,,,,,,,,,,,,,,,,,,,,,,,,,,,,,,Bow,001,2024-02-06_20h31.09.911,M2_experiment1,2023.2.3,59.929618650170134,2024-02-06 20h31.24.243387 +0100,
46,NotModifiedT,resources/new_sounds_not_modified/M6pet.wav,0.506976177381986,None,None,None,None,e,M,0,11,11,22,,,,,54.54423380002845,,,,,,,,,,,,,,,,,,,,,,,,,,,,,,,,,,,,,,,,,,,,,,,,54.53040379995946,54.54423380002845,55.03977799997665,0.5104823999572545,55.55486340005882,1.0255631000036374,55.53868430003058,56.03868090000469,56.670423300005496,e,1.1091883999761194,None,None,,,,,,,,,,,,,,,,,,,,,,,,,,,,,,,,,,,,,,,,Bow,001,2024-02-06_20h31.09.911,M2_experiment1,2023.2.3,59.929618650170134,2024-02-06 20h31.24.243387 +0100,
43,NotModifiedT,resources/new_sounds_not_modified/F2feat.wav,0.644364234737267,None,None,None,None,e,F,0,12,12,19,,,,,56.68833589996211,,,,,,,,,,,,,,,,,,,,,,,,,,,,,,,,,,,,,,,,,,,,,,,,56.6716344000306,56.68833589996211,57.17155900003854,0.5005023999838158,57.821721800020896,1.1512915999628603,57.821721800020896,58.32137230003718,59.3073216000339,r,1.468968200031668,None,None,,,,,,,,,,,,,,,,,,,,,,,,,,,,,,,,,,,,,,,,Bow,001,2024-02-06_20h31.09.911,M2_experiment1,2023.2.3,59.929618650170134,2024-02-06 20h31.24.243387 +0100,
45,NotModifiedSH,resources/new_sounds_not_modified/F3mosh.wav,0.628649263052651,None,None,None,None,e,F,0,13,13,21,,,,,59.33419850002974,,,,,,,,,,,,,,,,,,,,,,,,,,,,,,,,,,,,,,,,,,,,,,,,59.3085309000453,59.33419850002974,59.82041080005001,0.5124447999987751,60.45283500000369,1.1448297000024468,60.436036200029776,60.93834700004663,61.064145499956794,e,0.6117716999724507,None,None,,,,,,,,,,,,,,,,,,,,,,,,,,,,,,,,,,,,,,,,Bow,001,2024-02-06_20h31.09.911,M2_experiment1,2023.2.3,59.929618650170134,2024-02-06 20h31.24.243387 +0100,
26,ModifiedSH,resources/new_sounds_2/F2fleshing.wav,0.620294784580499,None,None,None,None,r,F,0,14,14,2,,,,,61.07983369997237,,,,,,,,,,,,,,,,,,,,,,,,,,,,,,,,,,,,,,,,,,,,,,,,61.06634630006738,61.07983369997237,61.57052469998598,0.5049107000231743,62.20372580003459,1.1381094000535086,62.186865300056525,62.687518700025976,63.026405600016005,e,0.8247489000204951,None,None,,,,,,,,,,,,,,,,,,,,,,,,,,,,,,,,,,,,,,,,Bow,001,2024-02-06_20h31.09.911,M2_experiment1,2023.2.3,59.929618650170134,2024-02-06 20h31.24.243387 +0100,
35,NotModifiedSH,resources/new_sounds_not_modified/M7mosh.wav,0.618134342110551,None,None,None,None,e,M,0,15,15,11,,,,,63.041899999952875,,,,,,,,,,,,,,,,,,,,,,,,,,,,,,,,,,,,,,,,,,,,,,,,63.0281854000641,63.041899999952875,63.53640580002684,0.5089365999447182,64.1890014000237,,64.15318080002908,64.65354850003496,65.06242179998662,e,0.8901575999334455,None,None,,,,,,,,,,,,,,,,,,,,,,,,,,,,,,,,,,,,,,,,Bow,001,2024-02-06_20h31.09.911,M2_experiment1,2023.2.3,59.929618650170134,2024-02-06 20h31.24.243387 +0100,
25,ModifiedSH,resources/new_sounds_2/F1swoosh.wav,0.770486715748874,None,None,None,None,r,F,0,16,16,1,,,,,65.07846850005444,,,,,,,,,,,,,,,,,,,,,,,,,,,,,,,,,,,,,,,,,,,,,,,,65.06431889999658,65.07846850005444,65.56904269999359,0.505509200040251,66.354186499957,,66.33759769995231,66.836660400033,66.97371269995347,r,0.6174167999997735,None,None,,,,,,,,,,,,,,,,,,,,,,,,,,,,,,,,,,,,,,,,Bow,001,2024-02-06_20h31.09.911,M2_experiment1,2023.2.3,59.929618650170134,2024-02-06 20h31.24.243387 +0100,
34,ModifiedSH,resources/new_sounds_2/M7mosh.wav,0.486031746031746,None,None,None,None,r,M,0,17,17,10,,,,,66.9899102000054,,,,,,,,,,,,,,,,,,,,,,,,,,,,,,,,,,,,,,,,,,,,,,,,66.97582439996768,66.9899102000054,67.4855064000003,0.510762199992314,67.9841776000103,1.0101234000176191,67.9841776000103,68.46895190002397,68.69063179998193,e,0.6889971999917179,None,None,,,,,,,,,,,,,,,,,,,,,,,,,,,,,,,,,,,,,,,,Bow,001,2024-02-06_20h31.09.911,M2_experiment1,2023.2.3,59.929618650170134,2024-02-06 20h31.24.243387 +0100,
41,ModifiedT,resources/new_sounds_2/F4utter.wav,0.53952380952381,None,None,None,None,r,F,0,18,18,17,,,,,68.70583220000844,,,,,,,,,,,,,,,,,,,,,,,,,,,,,,,,,,,,,,,,,,,,,,,,68.69244240003172,68.70583220000844,69.20160400005989,0.5101398999104276,69.75169419997837,1.0602385000092909,69.73519959999248,70.2351345999632,70.96803870005533,e,1.2278549000620842,None,None,,,,,,,,,,,,,,,,,,,,,,,,,,,,,,,,,,,,,,,,Bow,001,2024-02-06_20h31.09.911,M2_experiment1,2023.2.3,59.929618650170134,2024-02-06 20h31.24.243387 +0100,
30,ModifiedT,resources/new_sounds_2/F3footer.wav,0.597777777777778,None,None,None,None,r,F,0,19,19,6,,,,,70.98439999995753,,,,,,,,,,,,,,,,,,,,,,,,,,,,,,,,,,,,,,,,,,,,,,,,70.96893099998124,70.98439999995753,71.48233789997175,0.5138373000081629,72.08222630003002,1.1137388000497594,72.06551360001322,72.5664271999849,73.26694700005464,e,1.1932967000175267,None,None,,,,,,,,,,,,,,,,,,,,,,,,,,,,,,,,,,,,,,,,Bow,001,2024-02-06_20h31.09.911,M2_experiment1,2023.2.3,59.929618650170134,2024-02-06 20h31.24.243387 +0100,
39,ModifiedSH,resources/new_sounds_2/M7fresher.wav,0.497256235827664,None,None,None,None,r,M,0,20,20,15,,,,,73.283265999984,,,,,,,,,,,,,,,,,,,,,,,,,,,,,,,,,,,,,,,,,,,,,,,,73.26788379997015,73.283265999984,73.78166510001756,0.5142469999846071,74.28148610005155,1.0140719000482932,74.26481039996725,74.76473479997367,75.10147340002004,r,0.83277870004531,None,None,,,,,,,,,,,,,,,,,,,,,,,,,,,,,,,,,,,,,,,,Bow,001,2024-02-06_20h31.09.911,M2_experiment1,2023.2.3,59.929618650170134,2024-02-06 20h31.24.243387 +0100,
36,NotModifiedT,resources/new_sounds_not_modified/F4lot.wav,0.386965569882676,None,None,None,None,e,F,0,21,21,12,,,,,75.11797140003182,,,,,,,,,,,,,,,,,,,,,,,,,,,,,,,,,,,,,,,,,,,,,,,,75.10244120005518,75.11797140003182,75.6145335000474,0.5125300999497995,76.0142856000457,0.9122808000538498,75.99777100002393,76.49771050002892,76.74868289998267,r,0.7466343999840319,None,None,,,,,,,,,,,,,,,,,,,,,,,,,,,,,,,,,,,,,,,,Bow,001,2024-02-06_20h31.09.911,M2_experiment1,2023.2.3,59.929618650170134,2024-02-06 20h31.24.243387 +0100,
53,NotModifiedSH,resources/new_sounds_not_modified/M6fresher.wav,0.558439616650624,None,None,None,None,e,M,0,22,22,29,,,,,76.76432600000408,,,,,,,,,,,,,,,,,,,,,,,,,,,,,,,,,,,,,,,,,,,,,,,,76.74945530004334,76.76432600000408,77.26355579996016,0.5144665000261739,77.83025620004628,1.08116250007879,77.81344749999698,78.31579260004219,78.65450780000538,e,0.8366115000098944,None,None,,,,,,,,,,,,,,,,,,,,,,,,,,,,,,,,,,,,,,,,Bow,001,2024-02-06_20h31.09.911,M2_experiment1,2023.2.3,59.929618650170134,2024-02-06 20h31.24.243387 +0100,
48,ModifiedT,resources/new_sounds_2/M3lottery.wav,0.649773242630385,None,None,None,None,r,M,0,23,23,24,,,,,78.67116080003325,,,,,,,,,,,,,,,,,,,,,,,,,,,,,,,,,,,,,,,,,,,,,,,,78.65668979997281,78.67116080003325,79.16442759998608,0.508517999900505,79.81655980006326,1.1616965999128297,79.81655980006326,80.31484780006576,80.78010660002474,r,0.9524189000949264,None,None,,,,,,,,,,,,,,,,,,,,,,,,,,,,,,,,,,,,,,,,Bow,001,2024-02-06_20h31.09.911,M2_experiment1,2023.2.3,59.929618650170134,2024-02-06 20h31.24.243387 +0100,
54,NotModifiedSH,resources/new_sounds_not_modified/F5thrasher.wav,0.585496600933162,None,None,None,None,e,F,0,24,24,30,,,,,80.79899609996937,,,,,,,,,,,,,,,,,,,,,,,,,,,,,,,,,,,,,,,,,,,,,,,,80.78151840006467,80.79899609996937,81.29746839997824,0.5166165999835357,81.89807730005123,1.1172245000489056,81.87993499997538,,82.33178380003665,e,0.4415732999332249,None,None,,,,,,,,,,,,,,,,,,,,,,,,,,,,,,,,,,,,,,,,Bow,001,2024-02-06_20h31.09.911,M2_experiment1,2023.2.3,59.929618650170134,2024-02-06 20h31.24.243387 +0100,
27,ModifiedSH,resources/new_sounds_2/M4flesh.wav,0.722767978649223,None,None,None,None,r,M,0,25,25,3,,,,,82.34906779997982,,,,,,,,,,,,,,,,,,,,,,,,,,,,,,,,,,,,,,,,,,,,,,,,82.33311889995821,82.34906779997982,82.84689729998354,0.5144133999710903,83.58034270000644,,83.56411010003649,84.06528009998146,84.2019570999546,r,0.6346527999266982,None,None,,,,,,,,,,,,,,,,,,,,,,,,,,,,,,,,,,,,,,,,Bow,001,2024-02-06_20h31.09.911,M2_experiment1,2023.2.3,59.929618650170134,2024-02-06 20h31.24.243387 +0100,
31,NotModifiedT,resources/new_sounds_not_modified/F3footer.wav,0.573733808005514,None,None,None,None,e,F,0,26,26,7,,,,,84.21846660005394,,,,,,,,,,,,,,,,,,,,,,,,,,,,,,,,,,,,,,,,,,,,,,,,84.20426639996003,84.21846660005394,84.71270759997424,0.5095459999283776,85.31151300005149,1.1083416999317706,85.28158299997449,85.77918579999823,85.9157718999777,e,0.6301225000061095,None,None,,,,,,,,,,,,,,,,,,,,,,,,,,,,,,,,,,,,,,,,Bow,001,2024-02-06_20h31.09.911,M2_experiment1,2023.2.3,59.929618650170134,2024-02-06 20h31.24.243387 +0100,
50,NotModifiedSH,resources/new_sounds_not_modified/M3dish.wav,0.409302075267592,None,None,None,None,e,M,0,27,27,26,,,,,85.9318066999549,,,,,,,,,,,,,,,,,,,,,,,,,,,,,,,,,,,,,,,,,,,,,,,,85.917174500064,85.9318066999549,86.42869690002408,0.5122254999587312,86.84225570003036,0.9257449000142515,86.82540550001431,87.32609490002505,87.69539959996473,r,0.8530001000035554,None,None,,,,,,,,,,,,,,,,,,,,,,,,,,,,,,,,,,,,,,,,Bow,001,2024-02-06_20h31.09.911,M2_experiment1,2023.2.3,59.929618650170134,2024-02-06 20h31.24.243387 +0100,
52,NotModifiedSH,resources/new_sounds_not_modified/M4swoosh.wav,0.736227123531279,None,None,None,None,e,M,0,28,28,28,,,,,87.71121159999166,,,,,,,,,,,,,,,,,,,,,,,,,,,,,,,,,,,,,,,,,,,,,,,,87.69681250001304,87.71121159999166,88.2097439999925,0.5136344999773428,88.9580972000258,1.2619930999353528,88.9426933999639,89.44101710000541,89.52719180006534,r,0.5710354000329971,None,None,,,,,,,,,,,,,,,,,,,,,,,,,,,,,,,,,,,,,,,,Bow,001,2024-02-06_20h31.09.911,M2_experiment1,2023.2.3,59.929618650170134,2024-02-06 20h31.24.243387 +0100,
33,ModifiedT,resources/new_sounds_2/M7fatter.wav,0.644739229024943,None,None,None,None,r,M,0,29,29,9,,,,,89.54342999996152,,,,,,,,,,,,,,,,,,,,,,,,,,,,,,,,,,,,,,,,,,,,,,,,89.528629599954,89.54342999996152,90.04092130006757,0.5129575999453664,90.69081649999134,1.1628529999870807,90.6739870000165,91.17425799998455,91.31065720005427,e,0.6320995000423864,None,None,,,,,,,,,,,,,,,,,,,,,,,,,,,,,,,,,,,,,,,,Bow,001,2024-02-06_20h31.09.911,M2_experiment1,2023.2.3,59.929618650170134,2024-02-06 20h31.24.243387 +0100,
44,ModifiedSH,resources/new_sounds_2/F2thrasher.wav,0.510249433106576,None,None,None,None,r,F,0,30,30,20,,,,,91.32811410003342,,,,,,,,,,,,,,,,,,,,,,,,,,,,,,,,,,,,,,,,,,,,,,,,91.31252619996667,91.32811410003342,91.8235977999866,0.5118517999071628,92.34020500001498,1.0284547000192106,92.32339410006534,92.8235188999679,93.22599519998766,e,0.8926792999263853,None,None,,,,,,,,,,,,,,,,,,,,,,,,,,,,,,,,,,,,,,,,Bow,001,2024-02-06_20h31.09.911,M2_experiment1,2023.2.3,59.929618650170134,2024-02-06 20h31.24.243387 +0100,
,,,,,,,,,,,,,,,,,,,,,,,,,,,,,,,,,,,,,,,,,,,,,,,,,,,,,,,,,,,,,,,,,,,,,,,,,,,,,,,93.22702610003762,93.24300859996583,93.24300859996583,101.40595759998541,space,8.147314499947242,None,,,,,,,,,,,,,,,,,,,,,,,,,,,,,,,,,Bow,001,2024-02-06_20h31.09.911,M2_experiment1,2023.2.3,59.929618650170134,2024-02-06 20h31.24.243387 +0100,
,,,,,,,,,,,,,,,,,,,,,,,,,,,,,,,,,,,,,,,,,,,,,,,,,,,,,,,,,,,,,,,,,,,,,,,,,,,,,,,,,,,,,,101.40600149997044,101.42167309997603,101.42167309997603,111.71910390001722,space,10.284502599970438,None,,,,,,,,,,,,,,,,,,,,,,,,,,Bow,001,2024-02-06_20h31.09.911,M2_experiment1,2023.2.3,59.929618650170134,2024-02-06 20h31.24.243387 +0100,
10,ModifiedT,resources/new_sounds_not_modified/M2fit.wav,0.423218058079414,resources/new_sounds_not_modified/M5fish.wav,0.451129071842058,resources/new_sounds_2/M4fit.wav,0.597210884353741,1,M,,,,,0,0,0,9,111.76549340004567,,,,,,,,,,,,,,,,,,,,,,,,,,,,,,,,,,,,,,,,,,,,,,,,,,,,,,,,,,,,,,,,,,,,,,,,,,,111.74956410005689,111.76549340004567,112.22093069995753,0.501938599976711,112.65505000005942,0.9360528999241069,113.1544458999997,113.15203819004819,113.62220149999484,113.62220149999484,114.10445750004146,114.10177288996056,114.71953620004933,114.71953620004933,114.71953620004933,115.20495899999514,122.81694900000002,e,8.082565999939106,None,None,0,,,,Bow,001,2024-02-06_20h31.09.911,M2_experiment1,2023.2.3,59.929618650170134,2024-02-06 20h31.24.243387 +0100,
5,ModifiedT,resources/new_sounds_not_modified/F4met.wav,0.44494520825283956,resources/new_sounds_2/F2met.wav,0.634104308390023,resources/new_sounds_not_modified/F1mesh.wav,0.5571319490698841,1,F,,,,,0,1,1,4,122.83472569996957,,,,,,,,,,,,,,,,,,,,,,,,,,,,,,,,,,,,,,,,,,,,,,,,,,,,,,,,,,,,,,,,,,,,,,,,,,,122.81831130001228,122.83472569996957,123.3310613000067,0.5132165999384597,123.7813852999825,0.9635422999272123,124.26444549998268,124.26450978999492,124.91223889996763,124.91223889996763,125.3975739000598,125.39765109005384,125.96723820001353,125.96723820001353,125.96723820001353,,126.36618779995479,e,0.3965177999343723,None,None,0,,,,Bow,001,2024-02-06_20h31.09.911,M2_experiment1,2023.2.3,59.929618650170134,2024-02-06 20h31.24.243387 +0100,
14,ModifiedSH,resources/new_sounds_not_modified/F2bosh.wav,0.494392229081527,resources/new_sounds_not_modified/F5bot.wav,0.485673207115724,resources/new_sounds_2/F1bosh.wav,0.520634920634921,1,F,,,,,0,2,2,13,126.38378479995299,,,,,,,,,,,,,,,,,,,,,,,,,,,,,,,,,,,,,,,,,,,,,,,,,,,,,,,,,,,,,,,,,,,,,,,,,,,126.36712660000194,126.38378479995299,126.88027800002601,0.5136050999863073,127.3801453000633,1.013468199991621,127.86327650002204,127.86325758998282,128.36659330001567,128.36659330001567,128.84632749995217,128.84633649000898,129.3821387999924,129.3821387999924,129.3821387999924,129.87965020001866,130.0996446000645,e,0.7149693999672309,None,None,0,,,,Bow,001,2024-02-06_20h31.09.911,M2_experiment1,2023.2.3,59.929618650170134,2024-02-06 20h31.24.243387 +0100,
19,ModifiedT,resources/new_sounds_2/F2put.wav,0.521360544217687,resources/new_sounds_not_modified/F4push.wav,0.436144678520506,resources/new_sounds_not_modified/F5put.wav,0.363522850118329,2,F,,,,,0,3,3,18,130.1161958000157,,,,,,,,,,,,,,,,,,,,,,,,,,,,,,,,,,,,,,,,,,,,,,,,,,,,,,,,,,,,,,,,,,,,,,,,,,,130.100608299952,130.1161958000157,130.6123884000117,0.5122709999559447,131.1455469999928,1.0454157999483868,131.62871079996694,131.62862378999125,132.08404870005324,132.08404870005324,132.561681900057,132.56173528998625,132.94129860005341,132.94129860005341,132.94129860005341,133.42870120005682,133.78475660004187,e,0.8333056999836117,None,None,0,,,,Bow,001,2024-02-06_20h31.09.911,M2_experiment1,2023.2.3,59.929618650170134,2024-02-06 20h31.24.243387 +0100,
15,ModifiedSH,resources/new_sounds_not_modified/M2fish.wav,0.602031419699607,resources/new_sounds_not_modified/M5fit.wav,0.593107043618346,resources/new_sounds_2/M1fish.wav,0.512562358276644,1,M,,,,,0,4,4,14,133.8035526999738,,,,,,,,,,,,,,,,,,,,,,,,,,,,,,,,,,,,,,,,,,,,,,,,,,,,,,,,,,,,,,,,,,,,,,,,,,,133.78606890002266,133.8035526999738,134.29675119998865,0.5112997000105679,134.91146470000967,1.1260078999912366,135.39701590000186,135.39454579004087,136.00017949996982,136.00017949996982,136.49357930000406,136.49355829006527,137.0174987000646,137.0174987000646,136.9932897000108,,137.22856540000066,r,0.22629779996350408,None,None,0,,,,Bow,001,2024-02-06_20h31.09.911,M2_experiment1,2023.2.3,59.929618650170134,2024-02-06 20h31.24.243387 +0100,
13,ModifiedT,resources/new_sounds_not_modified/F1fish.wav,0.519196656146427,resources/new_sounds_not_modified/F4fit.wav,0.297524783699501,resources/new_sounds_2/F2fit.wav,0.443741496598639,2,F,,,,,0,5,5,12,137.24581490003038,,,,,,,,,,,,,,,,,,,,,,,,,,,,,,,,,,,,,,,,,,,,,,,,,,,,,,,,,,,,,,,,,,,,,,,,,,,137.2293429999845,137.24581490003038,137.74316059995908,0.5141970999538898,138.29880450002383,,138.76315859996248,138.7603143900633,139.0936994999647,139.07336170005146,139.56359999999404,139.5600373899797,140.0212394000264,140.0212394000264,140.0212394000264,140.49757530004717,141.17686760006472,e,1.1437347000464797,None,None,0,,,,Bow,001,2024-02-06_20h31.09.911,M2_experiment1,2023.2.3,59.929618650170134,2024-02-06 20h31.24.243387 +0100,
17,ModifiedT,resources/new_sounds_2/M2bosh.wav,0.387165532879819,resources/new_sounds_not_modified/M6bot.wav,0.501070841911371,resources/new_sounds_not_modified/M5bosh.wav,0.597358038485993,2,M,,,,,0,6,6,16,141.19887009996455,,,,,,,,,,,,,,,,,,,,,,,,,,,,,,,,,,,,,,,,,,,,,,,,,,,,,,,,,,,,,,,,,,,,,,,,,,,141.17878800001927,141.19887009996455,141.69512759998906,0.5172081999480724,142.11666870000772,,142.57834090001415,142.57559419004247,143.09926749998704,143.09926749998704,143.57848140003625,143.5753081899602,144.18949630006682,144.18949630006682,144.18949630006682,144.67952300002798,144.70689689996652,e,0.5045294999144971,None,None,0,,,,Bow,001,2024-02-06_20h31.09.911,M2_experiment1,2023.2.3,59.929618650170134,2024-02-06 20h31.24.243387 +0100,
7,ModifiedSH,resources/new_sounds_2/M1bosh.wav,0.4574829931972789,resources/new_sounds_not_modified/M2bot.wav,0.415863975908209,resources/new_sounds_not_modified/M4bosh.wav,0.4533657452807347,3,M,,,,,0,7,7,6,144.73090840002988,,,,,,,,,,,,,,,,,,,,,,,,,,,,,,,,,,,,,,,,,,,,,,,,,,,,,,,,,,,,,,,,,,,,,,,,,,,144.70988460001536,144.73090840002988,145.21006930002477,0.5014821999939159,145.67754489998333,0.9689563000574708,146.17784959997516,146.17442608997226,146.60624770005234,146.60624770005234,147.09339980001096,147.0907616900513,147.58861209999304,147.56137210002635,147.56137210002635,148.0449806000106,148.15970600000583,r,0.5945189000340179,None,None,0,,,,Bow,001,2024-02-06_20h31.09.911,M2_experiment1,2023.2.3,59.929618650170134,2024-02-06 20h31.24.243387 +0100,
20,ModifiedSH,resources/new_sounds_2/F2push.wav,0.418027210884354,resources/new_sounds_not_modified/F4push.wav,0.436144678520506,resources/new_sounds_not_modified/F3put.wav,0.437781204290985,2,F,,,,,0,8,8,19,148.18154969997704,,,,,,,,,,,,,,,,,,,,,,,,,,,,,,,,,,,,,,,,,,,,,,,,,,,,,,,,,,,,,,,,,,,,,,,,,,,148.16148450004403,148.18154969997704,148.6760498000076,0.5153739000670612,149.09372070000973,0.9330378000158817,149.5933573000366,149.59129579004366,150.04646810004488,150.04646810004488,150.52580910001416,150.52292199002113,150.99012149998453,150.97309680003673,150.97309680003673,151.4603703999892,151.73359980003443,t,0.7425990999909118,None,None,0,,,,Bow,001,2024-02-06_20h31.09.911,M2_experiment1,2023.2.3,59.929618650170134,2024-02-06 20h31.24.243387 +0100,
11,ModifiedSH,resources/new_sounds_not_modified/M1fish.wav,0.569506825661794,resources/new_sounds_2/M7fit.wav,0.485691609977324,resources/new_sounds_not_modified/M3fit.wav,0.479334255844424,3,M,,,,,0,9,9,10,151.75518680003006,,,,,,,,,,,,,,,,,,,,,,,,,,,,,,,,,,,,,,,,,,,,,,,,,,,,,,,,,,,,,,,,,,,,,,,,,,,151.7354424999794,151.75518680003006,152.24126499996055,0.5066305000800639,152.82311720005237,1.0884753999998793,153.30808240000624,153.3052744900342,153.8058391000377,153.8058391000377,154.30774660001043,154.30489808996208,154.80678099999204,154.80678099999204,154.78655670001172,155.27592349995393,155.92235750006512,e,1.124997999984771,None,None,0,,,,Bow,001,2024-02-06_20h31.09.911,M2_experiment1,2023.2.3,59.929618650170134,2024-02-06 20h31.24.243387 +0100,
1,ModifiedT,resources/new_sounds_not_modified/F2fit.wav,0.374261916532496,resources/new_sounds_not_modified/F5fish.wav,0.478583202882902,resources/new_sounds_2/F4fit.wav,0.41736473916697,1,F,,,,,0,10,10,0,155.93928920000326,,,,,,,,,,,,,,,,,,,,,,,,,,,,,,,,,,,,,,,,,,,,,,,,,,,,,,,,,,,,,,,,,,,,,,,,,,,155.92315399996005,155.93928920000326,156.438439700054,0.5157581999665126,156.82139729999471,0.8987010000273585,157.30534189997707,157.30376159003936,157.79755430005025,157.79755430005025,158.28830300003756,158.28687368996907,158.72069139999803,,158.7042405999964,,158.90660950005986,e,0.1892016000347212,None,None,0,,,,Bow,001,2024-02-06_20h31.09.911,M2_experiment1,2023.2.3,59.929618650170134,2024-02-06 20h31.24.243387 +0100,
4,ModifiedT,resources/new_sounds_not_modified/M4mat.wav,0.4451593985921889,resources/new_sounds_2/M3mat.wav,0.494308390022676,resources/new_sounds_not_modified/M2mash.wav,0.7358947371573947,1,M,,,,,0,11,11,3,158.92658029997256,,,,,,,,,,,,,,,,,,,,,,,,,,,,,,,,,,,,,,,,,,,,,,,,,,,,,,,,,,,,,,,,,,,,,,,,,,,158.9080025999574,158.92658029997256,159.4216713999631,0.5143657000735402,159.87106989999302,0.9637191999936476,160.35436700005084,160.3527672899654,160.86364710005,160.86364710005,161.35401020001154,161.3524384900229,162.1064312000526,162.1064312000526,162.1064312000526,162.58777670003474,162.75359590002336,e,0.6382004000479355,None,None,0,,,,Bow,001,2024-02-06_20h31.09.911,M2_experiment1,2023.2.3,59.929618650170134,2024-02-06 20h31.24.243387 +0100,
12,ModifiedSH,resources/new_sounds_not_modified/F4bot.wav,0.390471530438234,resources/new_sounds_not_modified/F3bosh.wav,0.505513996768869,resources/new_sounds_2/F2bosh.wav,0.423673469387755,2,F,,,,,0,12,12,11,162.7748923000181,,,,,,,,,,,,,,,,,,,,,,,,,,,,,,,,,,,,,,,,,,,,,,,,,,,,,,,,,,,,,,,,,,,,,,,,,,,162.7550740999868,162.7748923000181,163.26963690004777,0.5152553000953048,163.66955200000666,0.9151634000008926,164.153007099987,164.15147269004956,164.67509340005927,164.67509340005927,165.15243080002256,165.1512013899628,165.593193699955,165.593193699955,165.593193699955,,165.704665999976,e,0.10311809997074306,None,None,0,,,,Bow,001,2024-02-06_20h31.09.911,M2_experiment1,2023.2.3,59.929618650170134,2024-02-06 20h31.24.243387 +0100,
18,ModifiedT,resources/new_sounds_2/M2put.wav,0.532199546485261,resources/new_sounds_not_modified/M7put.wav,0.410382098763918,resources/new_sounds_not_modified/M5push.wav,0.499025816019625,2,M,,,,,0,13,13,17,165.72517740004696,,,,,,,,,,,,,,,,,,,,,,,,,,,,,,,,,,,,,,,,,,,,,,,,,,,,,,,,,,,,,,,,,,,,,,,,,,,165.70610770001076,165.72517740004696,166.2182270999765,0.5127920000813901,166.76618689997122,1.0607680000830442,167.24824179999996,167.24812449002638,167.67106720001902,167.67106720001902,168.1478347000666,168.14822809002362,168.65726929996163,168.65726929996163,168.65726929996163,169.14796099998057,169.4164332000073,r,0.7564600999467075,None,None,0,,,,Bow,001,2024-02-06_20h31.09.911,M2_experiment1,2023.2.3,59.929618650170134,2024-02-06 20h31.24.243387 +0100,
8,ModifiedSH,resources/new_sounds_not_modified/M3bot.wav,0.368685295497059,resources/new_sounds_not_modified/M1bosh.wav,0.5055628425466665,resources/new_sounds_2/M5bosh.wav,0.4857823129251701,2,M,,,,,0,14,14,7,169.43202880001627,,,,,,,,,,,,,,,,,,,,,,,,,,,,,,,,,,,,,,,,,,,,,,,,,,,,,,,,,,,,,,,,,,,,,,,,,,,169.41719900001772,169.43202880001627,169.93183839996345,0.515047499909997,170.31469989998732,0.8978832999709994,170.79810709995218,170.79819008999038,171.3224218999967,171.3224218999967,171.80007590004243,171.79887219006196,172.30599050002638,172.30599050002638,172.28199270006735,,172.6358890000265,e,0.3425656999461353,None,None,0,,,,Bow,001,2024-02-06_20h31.09.911,M2_experiment1,2023.2.3,59.929618650170134,2024-02-06 20h31.24.243387 +0100,
2,ModifiedSh,resources/new_sounds_not_modified/F2fish.wav,0.528250066930233,resources/new_sounds_2/F1fit.wav,0.423218058079413,resources/new_sounds_not_modified/F5fit.wav,0.2975247836995,3,F,,,,,0,15,15,1,172.65655159996822,,,,,,,,,,,,,,,,,,,,,,,,,,,,,,,,,,,,,,,,,,,,,,,,,,,,,,,,,,,,,,,,,,,,,,,,,,,172.63741299998946,172.65655159996822,173.14923290000297,0.5126150000141934,173.68165489996318,1.0449642000021413,174.1663460000418,174.16469569003675,174.60896199999843,174.60896199999843,175.0992517999839,175.09780589002185,175.40687289997004,175.40687289997004,175.40687289997004,,175.81555689999368,r,0.3983716999646276,None,None,0,,,,Bow,001,2024-02-06_20h31.09.911,M2_experiment1,2023.2.3,59.929618650170134,2024-02-06 20h31.24.243387 +0100,
6,ModifiedT,resources/new_sounds_not_modified/M1met.wav,0.532038259057699,resources/new_sounds_2/M3met.wav,0.558503401360544,resources/new_sounds_not_modified/M5mesh.wav,0.5032130872900709,1,M,,,,,0,16,16,5,175.83288080000784,,,,,,,,,,,,,,,,,,,,,,,,,,,,,,,,,,,,,,,,,,,,,,,,,,,,,,,,,,,,,,,,,,,,,,,,,,,175.81640889996197,175.83288080000784,176.33173610002268,0.5158131000353023,176.86447420006152,1.0485984000843018,177.3650102999527,177.36354009003844,177.93700140004512,177.93700140004512,178.41491539997514,178.4132254900178,178.93427279999014,178.93427279999014,178.9132513999939,179.4157226999523,179.7342023999663,r,0.8025333000114188,None,None,0,,,,Bow,001,2024-02-06_20h31.09.911,M2_experiment1,2023.2.3,59.929618650170134,2024-02-06 20h31.24.243387 +0100,
3,ModifiedT,resources/new_sounds_2/F5mat.wav,0.565396825396825,resources/new_sounds_not_modified/F4mash.wav,0.38066522534541036,resources/new_sounds_not_modified/F2mat.wav,0.5007174554648515,3,F,,,,,0,17,17,2,179.7547409000108,,,,,,,,,,,,,,,,,,,,,,,,,,,,,,,,,,,,,,,,,,,,,,,,,,,,,,,,,,,,,,,,,,,,,,,,,,,179.7357116000494,179.7547409000108,180.24624750006478,0.511206499999389,180.81188319996,1.0768441000254825,181.31183600006625,181.3117894900497,181.70734129997436,181.70734129997436,182.1948618000606,182.19482819002587,182.70726679998916,182.70726679998916,182.70726679998916,183.19755110004917,183.1800222999882,e,0.45697409997228533,None,None,0,,,,Bow,001,2024-02-06_20h31.09.911,M2_experiment1,2023.2.3,59.929618650170134,2024-02-06 20h31.24.243387 +0100,
16,ModifiedT,resources/new_sounds_2/M2fit.wav,0.646553287981859,resources/new_sounds_not_modified/M4fit.wav,0.508424667314028,resources/new_sounds_not_modified/M5fish.wav,0.451129071842058,2,M,,,,,0,18,18,15,183.19755110004917,,,,,,,,,,,,,,,,,,,,,,,,,,,,,,,,,,,,,,,,,,,,,,,,,,,,,,,,,,,,,,,,,,,,,,,,,,,183.1809065999696,183.19755110004917,183.6943728000624,0.5139111999887973,184.3441155999899,1.163650400005281,184.82721899996977,184.82734318997245,185.35631950001698,185.35631950001698,185.84357430005912,185.84354698995594,186.3120668999618,186.3120668999618,186.2934033999918,186.7933578999946,187.27852309995797,t,0.9768091000150889,None,None,0,,,,Bow,001,2024-02-06_20h31.09.911,M2_experiment1,2023.2.3,59.929618650170134,2024-02-06 20h31.24.243387 +0100,
9,ModifiedSH,resources/new_sounds_not_modified/M4bot.wav,0.453615769026229,resources/new_sounds_not_modified/M3bosh.wav,0.524217377306996,resources/new_sounds_2/M2bosh.wav,0.387165532879819,2,M,,,,,0,19,19,8,187.29636060004123,,,,,,,,,,,,,,,,,,,,,,,,,,,,,,,,,,,,,,,,,,,,,,,,,,,,,,,,,,,,,,,,,,,,,,,,,,,187.27938439999707,187.29636060004123,187.7929241999518,0.5139435000019148,188.27105380001012,,188.74250920000486,188.74252649000846,189.2814910999732,189.2814910999732,189.75887450005393,189.75907688995358,190.17533949995413,,190.17533949995413,190.65873929997906,190.84454900003038,t,0.6618065999355167,None,None,0,,,,Bow,001,2024-02-06_20h31.09.911,M2_experiment1,2023.2.3,59.929618650170134,2024-02-06 20h31.24.243387 +0100,
21,ModifiedSH,resources/new_sounds_not_modified/F5fish.wav,0.478583202882902,resources/new_sounds_2/F4fish.wav,0.366258503401361,resources/new_sounds_not_modified/F2fit.wav,0.374261916532497,3,F,,,,,0,20,20,20,190.87235960003454,,,,,,,,,,,,,,,,,,,,,,,,,,,,,,,,,,,,,,,,,,,,,,,,,,,,,,,,,,,,,,,,,,,,,,,,,,,190.84540620003827,190.87235960003454,191.3583212000085,0.513314799987711,191.84166609996464,0.996654300019145,192.32479109999258,192.32470209000167,192.6974918000633,192.6974918000633,193.19123410002794,193.1911686899839,193.58177319995593,193.58177319995593,193.58177319995593,194.0742454000283,194.4435107000172,e,0.8593189000384882,None,None,0,,,,Bow,001,2024-02-06_20h31.09.911,M2_experiment1,2023.2.3,59.929618650170134,2024-02-06 20h31.24.243387 +0100,
22,ModifiedSH,resources/new_sounds_not_modified/F1mash.wav,0.601753675244161,resources/new_sounds_2/F3mash.wav,0.42437641723356,resources/new_sounds_not_modified/F4mat.wav,0.401181209050264,3,F,,,,,0,21,21,21,194.4604832000332,,,,,,,,,,,,,,,,,,,,,,,,,,,,,,,,,,,,,,,,,,,,,,,,,,,,,,,,,,,,,,,,,,,,,,,,,,,194.44437170005403,194.4604832000332,194.95728209998924,0.5133108999580145,195.58699850004632,1.1157105000456795,196.05998709995765,196.0574798900634,196.49472620000597,196.49472620000597,196.97606230003294,196.97375699004624,197.39097249996848,197.39097249996848,197.39097249996848,197.8728182000341,198.81101760000456,r,1.4008942000800744,None,None,0,,,,Bow,001,2024-02-06_20h31.09.911,M2_experiment1,2023.2.3,59.929618650170134,2024-02-06 20h31.24.243387 +0100,
,,,,,,,,,,,,,,,,,,,,,,,,,,,,,,,,,,,,,,,,,,,,,,,,,,,,,,,,,,,,,,,,,,,,,,,,,,,,,,,,,,,,,,,,,,,,,,,,,,,,,,,,,,,,,,,,,,,198.81235759996343,198.82845889998134,201.82665709999856,,,,,,,,
