ItemNb,Condition,Sound1,DurationSound1,Sound2,DurationSound2,Sound3,DurationSound3,ExpectedKey,Condition2,trials_task3.thisRepN,trials_task3.thisTrialN,trials_task3.thisN,trials_task3.thisIndex,trials_task1.thisRepN,trials_task1.thisTrialN,trials_task1.thisN,trials_task1.thisIndex,thisRow.t,notes,Welcome.started,textWelcomeMessage.started,keyWelcome.started,Welcome.stopped,keyWelcome.keys,keyWelcome.rt,keyWelcome.duration,Welcome_2.started,textWelcome2.started,key_resp_5.started,Welcome_2.stopped,key_resp_5.keys,key_resp_5.rt,key_resp_5.duration,Welcome_3.started,textWelcome3.started,key_resp_6.started,Welcome_3.stopped,key_resp_6.keys,key_resp_6.rt,key_resp_6.duration,blank.started,blank1.started,blank1.stopped,blank.stopped,volume_explanation.started,text_volume.started,key_resp_8.started,volume_explanation.stopped,key_resp_8.keys,key_resp_8.rt,key_resp_8.duration,volume.started,text_2.started,key_resp_7.started,sound_testvolume.started,volume.stopped,key_resp_7.keys,key_resp_7.rt,key_resp_7.duration,explanation.started,text.started,key_info_oddity.started,explanation.stopped,key_info_oddity.keys,key_info_oddity.rt,key_info_oddity.duration,task3.started,key_replay3.started,text_recording1_3.started,sound1_3.started,key_resp_question3.started,text_recording1_3.stopped,sound1_3.stopped,text_questiontask3.started,task3.stopped,key_resp_question3.keys,key_resp_question3.rt,key_resp_question3.duration,key_replay3.keys,explanation_3.started,text_4.started,key_resp_3.started,explanation_3.stopped,key_resp_3.keys,key_resp_3.rt,key_resp_3.duration,explanation_1.started,text_explanation_1.started,key_resp.started,explanation_1.stopped,key_resp.keys,key_resp.rt,key_resp.duration,task1.started,key_replay1.started,text_recording1.started,sound1.started,text_recording1.stopped,sound1.stopped,text_recording2.started,sound2.started,text_recording2.stopped,sound2.stopped,text_recording3.started,sound3.started,key_resp_question1.started,text_recording3.stopped,sound3.stopped,text_question1.started,task1.stopped,key_resp_question1.keys,key_resp_question1.rt,key_resp_question1.duration,key_replay1.keys,replay_count,Bye.started,text_6.started,Bye.stopped,participant,session,date,expName,psychopyVersion,frameRate,expStart,
,,,,,,,,,,,,,,,,,,,,0.010984200052917004,0.03253630001563579,0.03253630001563579,12.23252489999868,space,12.191653299960308,None,,,,,,,,,,,,,,,,,,,,,,,,,,,,,,,,,,,,,,,,,,,,,,,,,,,,,,,,,,,,,,,,,,,,,,,,,,,,,,,,,,,,,,,,,,,,,Colin,001,2024-02-04_21h23.07.933,M2_experiment1,2023.2.3,60.01828156802955,2024-02-04 21h23.21.521979 +0100,
,,,,,,,,,,,,,,,,,,,,,,,,,,,12.23256150004454,12.247813699999824,12.247813699999824,15.04782229999546,space,2.790670200018212,None,,,,,,,,,,,,,,,,,,,,,,,,,,,,,,,,,,,,,,,,,,,,,,,,,,,,,,,,,,,,,,,,,,,,,,,,,,,,,,,,,,,,,,Colin,001,2024-02-04_21h23.07.933,M2_experiment1,2023.2.3,60.01828156802955,2024-02-04 21h23.21.521979 +0100,
,,,,,,,,,,,,,,,,,,,,,,,,,,,,,,,,,,15.047859900048934,15.064503600005992,15.064503600005992,21.812752500060014,space,6.746910299989395,None,,,,,,,,,,,,,,,,,,,,,,,,,,,,,,,,,,,,,,,,,,,,,,,,,,,,,,,,,,,,,,,,,,,,,,,,,,,,,,,Colin,001,2024-02-04_21h23.07.933,M2_experiment1,2023.2.3,60.01828156802955,2024-02-04 21h23.21.521979 +0100,
,,,,,,,,,,,,,,,,,,,,,,,,,,,,,,,,,,,,,,,,,21.812790399999358,21.82776640006341,22.82836100005079,22.81195900007151,22.81198030000087,22.82836100005079,22.82836100005079,32.2087818,space,9.372456400073133,None,,,,,,,,,,,,,,,,,,,,,,,,,,,,,,,,,,,,,,,,,,,,,,,,,,,,,,,,,,,,,,,,,,,,Colin,001,2024-02-04_21h23.07.933,M2_experiment1,2023.2.3,60.01828156802955,2024-02-04 21h23.21.521979 +0100,
,,,,,,,,,,,,,,,,,,,,,,,,,,,,,,,,,,,,,,,,,,,,,,,,,,,,32.208823200082406,32.23529410001356,33.22440700000152,33.22429596004076,41.689304500003345,space,8.448476199992001,None,,,,,,,,,,,,,,,,,,,,,,,,,,,,,,,,,,,,,,,,,,,,,,,,,,,,,,,,,,,,Colin,001,2024-02-04_21h23.07.933,M2_experiment1,2023.2.3,60.01828156802955,2024-02-04 21h23.21.521979 +0100,
,,,,,,,,,,,,,,,,,,,,,,,,,,,,,,,,,,,,,,,,,,,,,,,,,,,,,,,,,,,,41.712261100066826,41.72468179999851,41.72468179999851,52.352506699971855,space,10.611678499961272,None,,,,,,,,,,,,,,,,,,,,,,,,,,,,,,,,,,,,,,,,,,,,,,,,,,,,,Colin,001,2024-02-04_21h23.07.933,M2_experiment1,2023.2.3,60.01828156802955,2024-02-04 21h23.21.521979 +0100,
33,ModifiedT,resources/new_sounds_2/M7fatter.wav,0.644739229024943,None,None,None,None,r,M,0,0,0,9,,,,,52.3969162000576,,,,,,,,,,,,,,,,,,,,,,,,,,,,,,,,,,,,,,,,,,,,,,,,,52.384686800069176,52.3969162000576,52.86780090001412,0.5153541000327095,53.50094409997109,53.51762429997325,1.1651720999507234,54.00076199998148,64.43210700002965,e,10.921699800062925,None,None,,,,,,,,,,,,,,,,,,,,,,,,,,,,,,,,,,,,,,,,Colin,001,2024-02-04_21h23.07.933,M2_experiment1,2023.2.3,60.01828156802955,2024-02-04 21h23.21.521979 +0100,
51,NotModifiedSH,resources/new_sounds_not_modified/M4mosh.wav,0.573267020202984,None,None,None,None,e,M,0,1,1,27,,,,,64.44809139997233,,,,,,,,,,,,,,,,,,,,,,,,,,,,,,,,,,,,,,,,,,,,,,,,,64.43326820002403,64.44809139997233,64.94703669997398,0.5141438000136986,65.51356360001955,65.53020949999336,1.0973183000460267,66.01341570005752,66.31467300001532,e,0.7885749000124633,None,None,,,,,,,,,,,,,,,,,,,,,,,,,,,,,,,,,,,,,,,,Colin,001,2024-02-04_21h23.07.933,M2_experiment1,2023.2.3,60.01828156802955,2024-02-04 21h23.21.521979 +0100,
27,ModifiedSH,resources/new_sounds_2/M4flesh.wav,0.722767978649223,None,None,None,None,r,M,0,2,2,3,,,,,66.33036510006059,,,,,,,,,,,,,,,,,,,,,,,,,,,,,,,,,,,,,,,,,,,,,,,,,66.31547560007311,66.33036510006059,66.82997940003406,0.5148885999806225,67.5462617999874,67.56285570003092,,68.04608000000007,68.23088140005711,e,0.6719635999761522,None,None,,,,,,,,,,,,,,,,,,,,,,,,,,,,,,,,,,,,,,,,Colin,001,2024-02-04_21h23.07.933,M2_experiment1,2023.2.3,60.01828156802955,2024-02-04 21h23.21.521979 +0100,
52,NotModifiedSH,resources/new_sounds_not_modified/M4swoosh.wav,0.736227123531279,None,None,None,None,e,M,0,3,3,28,,,,,68.2466794999782,,,,,,,,,,,,,,,,,,,,,,,,,,,,,,,,,,,,,,,,,,,,,,,,,68.2316708000144,68.2466794999782,68.74581430002581,0.5145084999967366,69.47890230000485,69.49570239998866,1.2643986999755725,69.97872690006625,75.46193460002542,r,5.966844400041737,None,None,,,,,,,,,,,,,,,,,,,,,,,,,,,,,,,,,,,,,,,,Colin,001,2024-02-04_21h23.07.933,M2_experiment1,2023.2.3,60.01828156802955,2024-02-04 21h23.21.521979 +0100,
50,NotModifiedSH,resources/new_sounds_not_modified/M3dish.wav,0.409302075267592,None,None,None,None,e,M,0,4,4,26,,,,,75.477416299982,,,,,,,,,,,,,,,,,,,,,,,,,,,,,,,,,,,,,,,,,,,,,,,,,75.46276010002475,75.477416299982,75.97683549998328,0.5144657999044284,76.37681380007416,76.39327780005988,0.9309107000008225,76.87677840003744,78.07782180001959,e,1.6980548999272287,None,None,,,,,,,,,,,,,,,,,,,,,,,,,,,,,,,,,,,,,,,,Colin,001,2024-02-04_21h23.07.933,M2_experiment1,2023.2.3,60.01828156802955,2024-02-04 21h23.21.521979 +0100,
46,NotModifiedT,resources/new_sounds_not_modified/M6pet.wav,0.506976177381986,None,None,None,None,e,M,0,5,5,22,,,,,78.09357600007206,,,,,,,,,,,,,,,,,,,,,,,,,,,,,,,,,,,,,,,,,,,,,,,,,78.0785981999943,78.09357600007206,78.59266429999843,0.514435000019148,79.09254009998403,79.10918799997307,1.0309509000508115,79.59236730006523,79.71047100005671,e,0.6017207000404596,None,None,,,,,,,,,,,,,,,,,,,,,,,,,,,,,,,,,,,,,,,,Colin,001,2024-02-04_21h23.07.933,M2_experiment1,2023.2.3,60.01828156802955,2024-02-04 21h23.21.521979 +0100,
43,NotModifiedT,resources/new_sounds_not_modified/F2feat.wav,0.644364234737267,None,None,None,None,e,F,0,6,6,19,,,,,79.72625220008194,,,,,,,,,,,,,,,,,,,,,,,,,,,,,,,,,,,,,,,,,,,,,,,,,79.71126160002314,79.72625220008194,80.22551919997204,0.5146417999640107,80.85865279997233,80.87533309997525,1.1644711999688298,81.35954800003674,81.36120769998524,e,0.4986064999829978,None,None,,,,,,,,,,,,,,,,,,,,,,,,,,,,,,,,,,,,,,,,Colin,001,2024-02-04_21h23.07.933,M2_experiment1,2023.2.3,60.01828156802955,2024-02-04 21h23.21.521979 +0100,
45,NotModifiedSH,resources/new_sounds_not_modified/F3mosh.wav,0.628649263052651,None,None,None,None,e,F,0,7,7,21,,,,,81.37734910007566,,,,,,,,,,,,,,,,,,,,,,,,,,,,,,,,,,,,,,,,,,,,,,,,,81.362135100062,81.37734910007566,81.87491310003679,0.5132373999804258,82.49139910005033,82.50802469998598,1.146304199937731,82.99124620005023,83.19254509999882,e,0.691985199926421,None,None,,,,,,,,,,,,,,,,,,,,,,,,,,,,,,,,,,,,,,,,Colin,001,2024-02-04_21h23.07.933,M2_experiment1,2023.2.3,60.01828156802955,2024-02-04 21h23.21.521979 +0100,
54,NotModifiedSH,resources/new_sounds_not_modified/F5thrasher.wav,0.585496600933162,None,None,None,None,e,F,0,8,8,30,,,,,83.20838129997719,,,,,,,,,,,,,,,,,,,,,,,,,,,,,,,,,,,,,,,,,,,,,,,,,83.19333590008318,83.20838129997719,83.70776889997069,0.5148099999642,84.29085170000326,84.30738730006851,1.1144224000163376,,84.74207350006327,r,0.4422243000008166,None,None,,,,,,,,,,,,,,,,,,,,,,,,,,,,,,,,,,,,,,,,Colin,001,2024-02-04_21h23.07.933,M2_experiment1,2023.2.3,60.01828156802955,2024-02-04 21h23.21.521979 +0100,
28,ModifiedSH,resources/new_sounds_2/F3flushing.wav,0.687845804988662,None,None,None,None,r,F,0,9,9,4,,,,,84.75805060006678,,,,,,,,,,,,,,,,,,,,,,,,,,,,,,,,,,,,,,,,,,,,,,,,,84.74297420005314,84.75805060006678,85.25707789999433,0.5145252998918295,85.94014970003627,85.97072790004313,,86.44033890007995,87.37452770001255,r,1.4258434999501333,None,None,,,,,,,,,,,,,,,,,,,,,,,,,,,,,,,,,,,,,,,,Colin,001,2024-02-04_21h23.07.933,M2_experiment1,2023.2.3,60.01828156802955,2024-02-04 21h23.21.521979 +0100,
53,NotModifiedSH,resources/new_sounds_not_modified/M6fresher.wav,0.558439616650624,None,None,None,None,e,M,0,10,10,29,,,,,87.3905139999697,,,,,,,,,,,,,,,,,,,,,,,,,,,,,,,,,,,,,,,,,,,,,,,,,87.37533750000875,87.3905139999697,87.88953579997178,0.5146020000101998,88.4394345000619,88.4563821000047,1.081452100072056,88.93946560006589,88.95747650007252,e,0.5081840999191627,None,None,,,,,,,,,,,,,,,,,,,,,,,,,,,,,,,,,,,,,,,,Colin,001,2024-02-04_21h23.07.933,M2_experiment1,2023.2.3,60.01828156802955,2024-02-04 21h23.21.521979 +0100,
48,ModifiedT,resources/new_sounds_2/M3lottery.wav,0.649773242630385,None,None,None,None,r,M,0,11,11,24,,,,,88.97406470007263,,,,,,,,,,,,,,,,,,,,,,,,,,,,,,,,,,,,,,,,,,,,,,,,,88.95825560006779,88.97406470007263,89.4726182000013,0.5147553998976946,90.1221781000495,90.1221781000495,1.1647370998980477,90.62482110003475,90.87343190005049,e,0.7440844000084326,None,None,,,,,,,,,,,,,,,,,,,,,,,,,,,,,,,,,,,,,,,,Colin,001,2024-02-04_21h23.07.933,M2_experiment1,2023.2.3,60.01828156802955,2024-02-04 21h23.21.521979 +0100,
31,NotModifiedT,resources/new_sounds_not_modified/F3footer.wav,0.573733808005514,None,None,None,None,e,F,0,12,12,7,,,,,90.88930470007472,,,,,,,,,,,,,,,,,,,,,,,,,,,,,,,,,,,,,,,,,,,,,,,,,90.87437069998123,90.88930470007472,91.38854090007953,0.5145450999261811,91.95472590008285,91.97158140002284,1.0975824999623,92.45471399999224,92.62284249998629,r,0.6594823999330401,None,None,,,,,,,,,,,,,,,,,,,,,,,,,,,,,,,,,,,,,,,,Colin,001,2024-02-04_21h23.07.933,M2_experiment1,2023.2.3,60.01828156802955,2024-02-04 21h23.21.521979 +0100,
38,ModifiedT,resources/new_sounds_2/M7butter.wav,0.44172335600907,None,None,None,None,r,M,0,13,13,14,,,,,92.63872809999157,,,,,,,,,,,,,,,,,,,,,,,,,,,,,,,,,,,,,,,,,,,,,,,,,92.62364750006236,92.63872809999157,93.13791839999612,0.5146392999449745,93.57110890001059,93.58764140005223,0.9643956000218168,94.07108929997776,94.18905939999968,r,0.6132089000893757,None,None,,,,,,,,,,,,,,,,,,,,,,,,,,,,,,,,,,,,,,,,Colin,001,2024-02-04_21h23.07.933,M2_experiment1,2023.2.3,60.01828156802955,2024-02-04 21h23.21.521979 +0100,
40,ModifiedSH,resources/new_sounds_2/F5fresher.wav,0.567437641723356,None,None,None,None,r,F,0,14,14,16,,,,,94.20548430003691,,,,,,,,,,,,,,,,,,,,,,,,,,,,,,,,,,,,,,,,,,,,,,,,,94.19001740007661,94.20548430003691,94.70404149999376,0.5143911000341177,95.27747139998246,95.30069329997059,,,95.7217436999781,e,0.4423460001125932,None,None,,,,,,,,,,,,,,,,,,,,,,,,,,,,,,,,,,,,,,,,Colin,001,2024-02-04_21h23.07.933,M2_experiment1,2023.2.3,60.01828156802955,2024-02-04 21h23.21.521979 +0100,
39,ModifiedSH,resources/new_sounds_2/M7fresher.wav,0.497256235827664,None,None,None,None,r,M,0,15,15,15,,,,,95.73754590004683,,,,,,,,,,,,,,,,,,,,,,,,,,,,,,,,,,,,,,,,,,,,,,,,,95.72253020002972,95.73754590004683,96.23683229996823,0.5146729000844061,96.71979640005156,96.73660000006203,1.0144396000541747,97.2195866999682,97.22105300007388,e,0.4885443999664858,None,None,,,,,,,,,,,,,,,,,,,,,,,,,,,,,,,,,,,,,,,,Colin,001,2024-02-04_21h23.07.933,M2_experiment1,2023.2.3,60.01828156802955,2024-02-04 21h23.21.521979 +0100,
34,ModifiedSH,resources/new_sounds_2/M7mosh.wav,0.486031746031746,None,None,None,None,r,M,0,16,16,10,,,,,97.23682900005952,,,,,,,,,,,,,,,,,,,,,,,,,,,,,,,,,,,,,,,,,,,,,,,,,97.2218643000815,97.23682900005952,97.73637559998315,0.5148843999486417,98.21928429999389,98.24834729998838,1.0268557999515906,98.7192341000773,98.82090900000185,r,0.5854567000642419,None,None,,,,,,,,,,,,,,,,,,,,,,,,,,,,,,,,,,,,,,,,Colin,001,2024-02-04_21h23.07.933,M2_experiment1,2023.2.3,60.01828156802955,2024-02-04 21h23.21.521979 +0100,
29,NotModifiedT,resources/new_sounds_2/M4getting.wav,0.612123590008089,None,None,None,None,e,M,0,17,17,5,,,,,98.83656329999212,,,,,,,,,,,,,,,,,,,,,,,,,,,,,,,,,,,,,,,,,,,,,,,,,98.8216910000192,98.83656329999212,99.33558229997288,0.5142616000957787,99.93569469999056,99.95205459999852,1.1307530000340194,100.43546200008132,100.58688349998556,e,0.643333200016059,None,None,,,,,,,,,,,,,,,,,,,,,,,,,,,,,,,,,,,,,,,,Colin,001,2024-02-04_21h23.07.933,M2_experiment1,2023.2.3,60.01828156802955,2024-02-04 21h23.21.521979 +0100,
30,ModifiedT,resources/new_sounds_2/F3footer.wav,0.597777777777778,None,None,None,None,r,F,0,18,18,6,,,,,100.60268989996985,,,,,,,,,,,,,,,,,,,,,,,,,,,,,,,,,,,,,,,,,,,,,,,,,100.5877768000355,100.60268989996985,101.10177910001948,0.5144517000298947,101.68490170000587,101.70153229997959,1.1142926999600604,102.1846534999786,103.03671830007806,r,1.3459406000329182,None,None,,,,,,,,,,,,,,,,,,,,,,,,,,,,,,,,,,,,,,,,Colin,001,2024-02-04_21h23.07.933,M2_experiment1,2023.2.3,60.01828156802955,2024-02-04 21h23.21.521979 +0100,
32,ModifiedT,resources/new_sounds_2/M2city.wav,0.658866213151928,None,None,None,None,r,M,0,19,19,8,,,,,103.05238320003264,,,,,,,,,,,,,,,,,,,,,,,,,,,,,,,,,,,,,,,,,,,,,,,,,103.0375223000301,103.05238320003264,103.55088330002036,0.5138204999966547,104.20070070005022,104.21741220005788,1.1802750999340788,,104.66885040001944,r,0.46046800003387034,None,None,,,,,,,,,,,,,,,,,,,,,,,,,,,,,,,,,,,,,,,,Colin,001,2024-02-04_21h23.07.933,M2_experiment1,2023.2.3,60.01828156802955,2024-02-04 21h23.21.521979 +0100,
41,ModifiedT,resources/new_sounds_2/F4utter.wav,0.53952380952381,None,None,None,None,r,F,0,20,20,17,,,,,104.68460250005592,,,,,,,,,,,,,,,,,,,,,,,,,,,,,,,,,,,,,,,,,,,,,,,,,104.66966170002706,104.68460250005592,105.1836975000333,0.5144219000358135,105.71692110004369,105.75288030004594,,106.21686020004563,106.3183823999716,r,0.5885760999517515,None,None,,,,,,,,,,,,,,,,,,,,,,,,,,,,,,,,,,,,,,,,Colin,001,2024-02-04_21h23.07.933,M2_experiment1,2023.2.3,60.01828156802955,2024-02-04 21h23.21.521979 +0100,
37,ModifiedT,resources/new_sounds_2/F4lot.wav,0.449274376417234,None,None,None,None,r,F,0,21,21,13,,,,,106.33468139998149,,,,,,,,,,,,,,,,,,,,,,,,,,,,,,,,,,,,,,,,,,,,,,,,,106.3194489000598,106.33468139998149,106.83313559996895,0.5140972000081092,107.28310810006224,107.28310810006224,0.9646503000985831,107.78326920000836,107.82019690005109,e,0.531619899906218,None,None,,,,,,,,,,,,,,,,,,,,,,,,,,,,,,,,,,,,,,,,Colin,001,2024-02-04_21h23.07.933,M2_experiment1,2023.2.3,60.01828156802955,2024-02-04 21h23.21.521979 +0100,
47,ModifiedT,resources/new_sounds_2/M6root.wav,0.557210884353742,None,None,None,None,r,M,0,22,22,23,,,,,107.83776789996773,,,,,,,,,,,,,,,,,,,,,,,,,,,,,,,,,,,,,,,,,,,,,,,,,107.82180929998867,107.83776789996773,108.33288210001774,0.5117912000278011,108.88255450001452,108.8993759000441,1.0782892999704927,,109.25112500006799,e,0.3667187000392005,None,None,,,,,,,,,,,,,,,,,,,,,,,,,,,,,,,,,,,,,,,,Colin,001,2024-02-04_21h23.07.933,M2_experiment1,2023.2.3,60.01828156802955,2024-02-04 21h23.21.521979 +0100,
42,NotModifiedT,resources/new_sounds_not_modified/F4feat.wav,0.478604920503187,None,None,None,None,e,F,0,23,23,18,,,,,109.26684100006241,,,,,,,,,,,,,,,,,,,,,,,,,,,,,,,,,,,,,,,,,,,,,,,,,109.25184090004768,109.26684100006241,109.765598100028,0.514115700032562,110.23216949997004,110.24893970007543,0.9974543999414891,,110.65038270002697,e,0.41670929989777505,None,None,,,,,,,,,,,,,,,,,,,,,,,,,,,,,,,,,,,,,,,,Colin,001,2024-02-04_21h23.07.933,M2_experiment1,2023.2.3,60.01828156802955,2024-02-04 21h23.21.521979 +0100,
26,ModifiedSH,resources/new_sounds_2/F2fleshing.wav,0.620294784580499,None,None,None,None,r,F,0,24,24,2,,,,,110.66651540005114,,,,,,,,,,,,,,,,,,,,,,,,,,,,,,,,,,,,,,,,,,,,,,,,,110.65113870007917,110.66651540005114,111.16497330006678,0.5142099999357015,111.781608600053,111.79816650005523,1.1473782999673858,112.28139889996964,112.51638960000128,r,0.7210399999748915,None,None,,,,,,,,,,,,,,,,,,,,,,,,,,,,,,,,,,,,,,,,Colin,001,2024-02-04_21h23.07.933,M2_experiment1,2023.2.3,60.01828156802955,2024-02-04 21h23.21.521979 +0100,
24,NotModifiedT,resources/new_sounds_not_modified/F1party.wav,0.63399526438517,None,None,None,None,e,F,0,25,25,0,,,,,112.53260929998942,,,,,,,,,,,,,,,,,,,,,,,,,,,,,,,,,,,,,,,,,,,,,,,,,112.51722330006305,112.53260929998942,113.03108200000133,0.5142426999518648,113.66426740004681,113.66426740004681,1.1478439000202343,,113.83243429998402,e,0.1516585999634117,None,None,,,,,,,,,,,,,,,,,,,,,,,,,,,,,,,,,,,,,,,,Colin,001,2024-02-04_21h23.07.933,M2_experiment1,2023.2.3,60.01828156802955,2024-02-04 21h23.21.521979 +0100,
44,ModifiedSH,resources/new_sounds_2/F2thrasher.wav,0.510249433106576,None,None,None,None,r,F,0,26,26,20,,,,,113.84829970006831,,,,,,,,,,,,,,,,,,,,,,,,,,,,,,,,,,,,,,,,,,,,,,,,,113.83323620003648,113.84829970006831,114.34739960008301,0.5145310999359936,114.84736230003182,114.86374649999198,1.0309230999555439,,115.2651549000293,e,0.4011969000566751,None,None,,,,,,,,,,,,,,,,,,,,,,,,,,,,,,,,,,,,,,,,Colin,001,2024-02-04_21h23.07.933,M2_experiment1,2023.2.3,60.01828156802955,2024-02-04 21h23.21.521979 +0100,
35,NotModifiedSH,resources/new_sounds_not_modified/M7mosh.wav,0.618134342110551,None,None,None,None,e,M,0,27,27,11,,,,,115.28099720005412,,,,,,,,,,,,,,,,,,,,,,,,,,,,,,,,,,,,,,,,,,,,,,,,,115.26595500006806,115.28099720005412,115.78017719998024,0.5145998999942094,116.39678700000513,116.41319019999355,1.1476206999504939,,116.78125900006853,r,0.3756818000692874,None,None,,,,,,,,,,,,,,,,,,,,,,,,,,,,,,,,,,,,,,,,Colin,001,2024-02-04_21h23.07.933,M2_experiment1,2023.2.3,60.01828156802955,2024-02-04 21h23.21.521979 +0100,
49,NotModifiedT,resources/new_sounds_not_modified/M2lot.wav,0.466575772426751,None,None,None,None,e,M,0,28,28,25,,,,,116.79714829998557,,,,,,,,,,,,,,,,,,,,,,,,,,,,,,,,,,,,,,,,,,,,,,,,,116.7820544000715,116.79714829998557,117.2966362000443,0.5149587000487372,117.76274739997461,117.76274739997461,0.981472700019367,118.2629353000084,118.56527620006818,e,0.7855249000713229,None,None,,,,,,,,,,,,,,,,,,,,,,,,,,,,,,,,,,,,,,,,Colin,001,2024-02-04_21h23.07.933,M2_experiment1,2023.2.3,60.01828156802955,2024-02-04 21h23.21.521979 +0100,
36,NotModifiedT,resources/new_sounds_not_modified/F4lot.wav,0.386965569882676,None,None,None,None,e,F,0,29,29,12,,,,,118.58055620000232,,,,,,,,,,,,,,,,,,,,,,,,,,,,,,,,,,,,,,,,,,,,,,,,,118.56611040001735,118.58055620000232,119.0791211000178,0.5134034999646246,119.46243850002065,119.47892290004529,0.9132033999776468,119.962295299978,120.86350800003856,e,1.3975291999522597,None,None,,,,,,,,,,,,,,,,,,,,,,,,,,,,,,,,,,,,,,,,Colin,001,2024-02-04_21h23.07.933,M2_experiment1,2023.2.3,60.01828156802955,2024-02-04 21h23.21.521979 +0100,
25,ModifiedSH,resources/new_sounds_2/F1swoosh.wav,0.770486715748874,None,None,None,None,r,F,0,30,30,1,,,,,120.87931039999239,,,,,,,,,,,,,,,,,,,,,,,,,,,,,,,,,,,,,,,,,,,,,,,,,120.86433900007978,120.87931039999239,121.3784323000582,0.5144594999728724,122.14488669997081,122.16135670000222,,122.64473429997452,123.02926159999333,e,0.8723400000017136,None,None,,,,,,,,,,,,,,,,,,,,,,,,,,,,,,,,,,,,,,,,Colin,001,2024-02-04_21h23.07.933,M2_experiment1,2023.2.3,60.01828156802955,2024-02-04 21h23.21.521979 +0100,
,,,,,,,,,,,,,,,,,,,,,,,,,,,,,,,,,,,,,,,,,,,,,,,,,,,,,,,,,,,,,,,,,,,,,,,,,,,,,,,,123.02986630005762,123.04615349997766,123.04615349997766,129.74318250000942,space,6.6919143999693915,None,,,,,,,,,,,,,,,,,,,,,,,,,,,,,,,,,Colin,001,2024-02-04_21h23.07.933,M2_experiment1,2023.2.3,60.01828156802955,2024-02-04 21h23.21.521979 +0100,
,,,,,,,,,,,,,,,,,,,,,,,,,,,,,,,,,,,,,,,,,,,,,,,,,,,,,,,,,,,,,,,,,,,,,,,,,,,,,,,,,,,,,,,129.74322669999674,129.7597063999856,129.7597063999856,134.44164930004627,space,4.680502400035039,None,,,,,,,,,,,,,,,,,,,,,,,,,,Colin,001,2024-02-04_21h23.07.933,M2_experiment1,2023.2.3,60.01828156802955,2024-02-04 21h23.21.521979 +0100,
7,ModifiedSH,resources/new_sounds_2/M1bosh.wav,0.4574829931972789,resources/new_sounds_not_modified/M2bot.wav,0.415863975908209,resources/new_sounds_not_modified/M4bosh.wav,0.4533657452807347,3,M,,,,,0,0,0,6,134.4868844000157,,,,,,,,,,,,,,,,,,,,,,,,,,,,,,,,,,,,,,,,,,,,,,,,,,,,,,,,,,,,,,,,,,,,,,,,,,,,134.4710338000441,134.4868844000157,134.95694260008167,0.5153462999733165,135.42351260001305,0.981917200027965,135.90671070001554,135.90662275999784,136.33326870005112,136.33326870005112,136.82292369997595,136.82292016001884,137.272804700071,137.29011880001053,137.29011880001053,137.77284910005983,138.39115350006614,e,1.110433099907823,None,None,0,,,,Colin,001,2024-02-04_21h23.07.933,M2_experiment1,2023.2.3,60.01828156802955,2024-02-04 21h23.21.521979 +0100,
3,ModifiedT,resources/new_sounds_2/F5mat.wav,0.565396825396825,resources/new_sounds_not_modified/F4mash.wav,0.38066522534541036,resources/new_sounds_not_modified/F2mat.wav,0.5007174554648515,3,F,,,,,0,1,1,2,138.4088093000464,,,,,,,,,,,,,,,,,,,,,,,,,,,,,,,,,,,,,,,,,,,,,,,,,,,,,,,,,,,,,,,,,,,,,,,,,,,,138.3922898999881,138.4088093000464,138.90582380001433,0.5139555999776348,139.4720928000752,1.0802064999006689,139.9720889000455,139.97194416006096,140.363225899986,140.363225899986,140.83836400008295,140.83845646004193,141.35238120006397,141.35238120006397,141.35238120006397,141.85497039998882,146.35528860008344,e,4.995454199961387,None,None,0,,,,Colin,001,2024-02-04_21h23.07.933,M2_experiment1,2023.2.3,60.01828156802955,2024-02-04 21h23.21.521979 +0100,
8,ModifiedSH,resources/new_sounds_not_modified/M3bot.wav,0.368685295497059,resources/new_sounds_not_modified/M1bosh.wav,0.5055628425466665,resources/new_sounds_2/M5bosh.wav,0.4857823129251701,2,M,,,,,0,2,2,7,146.37250409997068,,,,,,,,,,,,,,,,,,,,,,,,,,,,,,,,,,,,,,,,,,,,,,,,,,,,,,,,,,,,,,,,,,,,,,,,,,,,146.35626080003567,146.37250409997068,146.86967909999657,0.5139465000247583,147.25291470007505,0.8971830999944359,147.7359864000464,147.7359548599925,148.25811769999564,148.25811769999564,148.7356508000521,148.73559716006275,149.2187873000512,149.23915000003763,149.23915000003763,149.71887840004638,149.93736430001445,e,0.7138624000363052,None,None,0,,,,Colin,001,2024-02-04_21h23.07.933,M2_experiment1,2023.2.3,60.01828156802955,2024-02-04 21h23.21.521979 +0100,
1,ModifiedT,resources/new_sounds_not_modified/F2fit.wav,0.374261916532496,resources/new_sounds_not_modified/F5fish.wav,0.478583202882902,resources/new_sounds_2/F4fit.wav,0.41736473916697,1,F,,,,,0,3,3,0,149.95420150004793,,,,,,,,,,,,,,,,,,,,,,,,,,,,,,,,,,,,,,,,,,,,,,,,,,,,,,,,,,,,,,,,,,,,,,,,,,,,149.93817280000076,149.95420150004793,150.45181440003216,0.5140112000517547,150.83526069996879,0.8974944000365213,151.31824739999138,151.31819526001345,151.81496160000097,151.81496160000097,152.30103329999838,152.30104456003755,152.71764030004852,152.71764030004852,,153.2174574000528,153.33592390001286,e,0.6053237000014633,None,None,0,,,,Colin,001,2024-02-04_21h23.07.933,M2_experiment1,2023.2.3,60.01828156802955,2024-02-04 21h23.21.521979 +0100,
11,ModifiedSH,resources/new_sounds_not_modified/M1fish.wav,0.569506825661794,resources/new_sounds_2/M7fit.wav,0.485691609977324,resources/new_sounds_not_modified/M3fit.wav,0.479334255844424,3,M,,,,,0,4,4,10,153.35325849999208,,,,,,,,,,,,,,,,,,,,,,,,,,,,,,,,,,,,,,,,,,,,,,,,,,,,,,,,,,,,,,,,,,,,,,,,,,,,153.33674479997717,153.35325849999208,153.850569000002,0.5142028999980539,154.44148580008186,,154.91689590003807,154.9167481600307,155.41990830004215,155.41990830004215,155.89988130005077,155.89992766000796,156.39215009997133,156.39215009997133,156.39215009997133,156.88298620004207,157.36807660001796,t,0.9695140999974683,None,None,0,,,,Colin,001,2024-02-04_21h23.07.933,M2_experiment1,2023.2.3,60.01828156802955,2024-02-04 21h23.21.521979 +0100,
2,ModifiedSh,resources/new_sounds_not_modified/F2fish.wav,0.528250066930233,resources/new_sounds_2/F1fit.wav,0.423218058079413,resources/new_sounds_not_modified/F5fit.wav,0.2975247836995,3,F,,,,,0,5,5,1,157.3855268000625,,,,,,,,,,,,,,,,,,,,,,,,,,,,,,,,,,,,,,,,,,,,,,,,,,,,,,,,,,,,,,,,,,,,,,,,,,,,157.3689963000361,157.3855268000625,157.8826803000411,0.5140695000300184,158.41580169997178,1.0472042999463156,158.89882780006155,158.8988830599701,159.342664900003,159.342664900003,159.83211850002408,159.83186646003742,160.14276199997403,160.14276199997403,160.14276199997403,160.6316010999726,161.03348059998825,r,0.8831609000917524,None,None,0,,,,Colin,001,2024-02-04_21h23.07.933,M2_experiment1,2023.2.3,60.01828156802955,2024-02-04 21h23.21.521979 +0100,
22,ModifiedSH,resources/new_sounds_not_modified/F1mash.wav,0.601753675244161,resources/new_sounds_2/F3mash.wav,0.42437641723356,resources/new_sounds_not_modified/F4mat.wav,0.401181209050264,3,F,,,,,0,6,6,21,161.05076050001662,,,,,,,,,,,,,,,,,,,,,,,,,,,,,,,,,,,,,,,,,,,,,,,,,,,,,,,,,,,,,,,,,,,,,,,,,,,,161.0342631000094,161.05076050001662,161.54813610005658,0.5142393000423908,162.17306120006833,1.1391815999522805,162.64778210001532,162.64764316007495,163.08686899999157,163.08686899999157,163.56422499998007,163.56419766007457,163.96379419998266,163.9805217999965,163.9805217999965,164.46392670006026,166.26549959997647,e,2.2958713999250904,None,None,0,,,,Colin,001,2024-02-04_21h23.07.933,M2_experiment1,2023.2.3,60.01828156802955,2024-02-04 21h23.21.521979 +0100,
10,ModifiedT,resources/new_sounds_not_modified/M2fit.wav,0.423218058079414,resources/new_sounds_not_modified/M5fish.wav,0.451129071842058,resources/new_sounds_2/M4fit.wav,0.597210884353741,1,M,,,,,0,7,7,9,166.28274860000238,,,,,,,,,,,,,,,,,,,,,,,,,,,,,,,,,,,,,,,,,,,,,,,,,,,,,,,,,,,,,,,,,,,,,,,,,,,,166.26630020001903,166.28274860000238,166.7798111999873,0.5138798999832943,167.21291140001267,0.946979200001806,167.69608590006828,167.6960204599891,168.16581450006925,168.16581450006925,168.64606840000488,168.64586956007406,169.25274450005963,169.25274450005963,169.25274450005963,169.74562120006885,169.99987910001073,t,0.7344716000370681,None,None,0,,,,Colin,001,2024-02-04_21h23.07.933,M2_experiment1,2023.2.3,60.01828156802955,2024-02-04 21h23.21.521979 +0100,
19,ModifiedT,resources/new_sounds_2/F2put.wav,0.521360544217687,resources/new_sounds_not_modified/F4push.wav,0.436144678520506,resources/new_sounds_not_modified/F5put.wav,0.363522850118329,2,F,,,,,0,8,8,18,170.01551360008307,,,,,,,,,,,,,,,,,,,,,,,,,,,,,,,,,,,,,,,,,,,,,,,,,,,,,,,,,,,,,,,,,,,,,,,,,,,,170.0007479999913,170.01551360008307,170.51173680007923,0.5113861999707296,171.04492220003158,1.0445692000212148,171.52813940006308,171.52808855997864,171.9948860000586,,172.46113289997447,172.46115585998632,172.84314780007116,172.84314780007116,172.84314780007116,173.32770710007753,175.23049680003896,e,2.3735762999858707,None,None,0,,,,Colin,001,2024-02-04_21h23.07.933,M2_experiment1,2023.2.3,60.01828156802955,2024-02-04 21h23.21.521979 +0100,
6,ModifiedT,resources/new_sounds_not_modified/M1met.wav,0.532038259057699,resources/new_sounds_2/M3met.wav,0.558503401360544,resources/new_sounds_not_modified/M5mesh.wav,0.5032130872900709,1,M,,,,,0,9,9,5,175.2466151000699,,,,,,,,,,,,,,,,,,,,,,,,,,,,,,,,,,,,,,,,,,,,,,,,,,,,,,,,,,,,,,,,,,,,,,,,,,,,175.23141060001217,175.2466151000699,175.74333349999506,0.5123641999671236,176.27661180007271,1.0456370998872444,176.77743880008347,176.7762804600643,177.35178959998302,177.35178959998302,177.82590519997757,177.82617365999613,178.32649540004786,178.34707770007662,178.34707770007662,178.82585670007393,180.69390429998748,t,2.364350499934517,None,None,0,,,,Colin,001,2024-02-04_21h23.07.933,M2_experiment1,2023.2.3,60.01828156802955,2024-02-04 21h23.21.521979 +0100,
17,ModifiedT,resources/new_sounds_2/M2bosh.wav,0.387165532879819,resources/new_sounds_not_modified/M6bot.wav,0.501070841911371,resources/new_sounds_not_modified/M5bosh.wav,0.597358038485993,2,M,,,,,0,10,10,16,180.71128230006434,,,,,,,,,,,,,,,,,,,,,,,,,,,,,,,,,,,,,,,,,,,,,,,,,,,,,,,,,,,,,,,,,,,,,,,,,,,,180.69471710000653,180.71128230006434,181.20815770002082,0.5138229000149295,181.6201939000748,,182.09124300000258,182.09114966006018,182.61478220007848,182.61478220007848,183.09094819996972,183.09087006002665,183.7030205000192,183.7030205000192,183.7030205000192,,183.95967200002633,r,0.24168310000095516,None,None,0,,,,Colin,001,2024-02-04_21h23.07.933,M2_experiment1,2023.2.3,60.01828156802955,2024-02-04 21h23.21.521979 +0100,
9,ModifiedSH,resources/new_sounds_not_modified/M4bot.wav,0.453615769026229,resources/new_sounds_not_modified/M3bosh.wav,0.524217377306996,resources/new_sounds_2/M2bosh.wav,0.387165532879819,2,M,,,,,0,11,11,8,183.97691089997534,,,,,,,,,,,,,,,,,,,,,,,,,,,,,,,,,,,,,,,,,,,,,,,,,,,,,,,,,,,,,,,,,,,,,,,,,,,,183.96048600005452,183.97691089997534,184.473748599994,0.5136497999774292,184.9403605000116,0.9802528000436723,185.42335220007226,185.42346196004655,185.96689789998345,185.96689789998345,186.44000130007043,186.43967936001718,186.8508699000813,186.8508699000813,186.8508699000813,187.33984030003194,188.9618335000705,t,2.092472199932672,None,None,0,,,,Colin,001,2024-02-04_21h23.07.933,M2_experiment1,2023.2.3,60.01828156802955,2024-02-04 21h23.21.521979 +0100,
12,ModifiedSH,resources/new_sounds_not_modified/F4bot.wav,0.390471530438234,resources/new_sounds_not_modified/F3bosh.wav,0.505513996768869,resources/new_sounds_2/F2bosh.wav,0.423673469387755,2,F,,,,,0,12,12,11,188.97630460001528,,,,,,,,,,,,,,,,,,,,,,,,,,,,,,,,,,,,,,,,,,,,,,,,,,,,,,,,,,,,,,,,,,,,,,,,,,,,188.96290450007655,188.97630460001528,189.47206230007578,0.5096154999919236,189.8717555999756,0.9092881000833586,190.35506650002208,190.35532635997515,190.87452080007643,190.87452080007643,191.3714759000577,191.37137086002622,191.7878421000205,191.80858010007069,191.80858010007069,192.28789959999267,206.23525150003843,e,14.439778700005263,None,None,0,,,,Colin,001,2024-02-04_21h23.07.933,M2_experiment1,2023.2.3,60.01828156802955,2024-02-04 21h23.21.521979 +0100,
18,ModifiedT,resources/new_sounds_2/M2put.wav,0.532199546485261,resources/new_sounds_not_modified/M7put.wav,0.410382098763918,resources/new_sounds_not_modified/M5push.wav,0.499025816019625,2,M,,,,,0,13,13,17,206.25223430001643,,,,,,,,,,,,,,,,,,,,,,,,,,,,,,,,,,,,,,,,,,,,,,,,,,,,,,,,,,,,,,,,,,,,,,,,,,,,206.23606770008337,206.25223430001643,206.74954210000578,0.5138460999587551,207.28255930007435,1.0468610000098124,207.78246700007003,207.78230805997737,208.20451710000634,208.20451710000634,208.68217280006502,208.68212586001027,209.19157859997358,209.19157859997358,209.19157859997358,209.68202780000865,210.93323690001853,r,1.7283133000601083,None,None,0,,,,Colin,001,2024-02-04_21h23.07.933,M2_experiment1,2023.2.3,60.01828156802955,2024-02-04 21h23.21.521979 +0100,
13,ModifiedT,resources/new_sounds_not_modified/F1fish.wav,0.519196656146427,resources/new_sounds_not_modified/F4fit.wav,0.297524783699501,resources/new_sounds_2/F2fit.wav,0.443741496598639,2,F,,,,,0,14,14,12,210.95005490002222,,,,,,,,,,,,,,,,,,,,,,,,,,,,,,,,,,,,,,,,,,,,,,,,,,,,,,,,,,,,,,,,,,,,,,,,,,,,210.93405340006575,210.95005490002222,211.44800910004415,0.5143391999881715,211.99228420003783,,212.4643118000822,212.46413116005715,212.7735829000594,212.7735829000594,213.26400139997713,213.264091560035,213.69723310007248,213.7272551000351,213.7272551000351,214.1976508999942,214.36589500005357,t,0.6591070999857038,None,None,0,,,,Colin,001,2024-02-04_21h23.07.933,M2_experiment1,2023.2.3,60.01828156802955,2024-02-04 21h23.21.521979 +0100,
16,ModifiedT,resources/new_sounds_2/M2fit.wav,0.646553287981859,resources/new_sounds_not_modified/M4fit.wav,0.508424667314028,resources/new_sounds_not_modified/M5fish.wav,0.451129071842058,2,M,,,,,0,15,15,15,214.38408160000108,,,,,,,,,,,,,,,,,,,,,,,,,,,,,,,,,,,,,,,,,,,,,,,,,,,,,,,,,,,,,,,,,,,,,,,,,,,,214.36676410003565,214.38408160000108,214.8801417000359,0.5137737999903038,215.53005609998945,1.1636942999903113,216.01338830008171,216.01296426006593,216.53350080002565,216.53350080002565,217.02951760008,217.02953426004387,217.4794561000308,217.49746440001763,217.49746440001763,217.97974570002407,219.18090340006165,e,1.697485200013034,None,None,0,,,,Colin,001,2024-02-04_21h23.07.933,M2_experiment1,2023.2.3,60.01828156802955,2024-02-04 21h23.21.521979 +0100,
15,ModifiedSH,resources/new_sounds_not_modified/M2fish.wav,0.602031419699607,resources/new_sounds_not_modified/M5fit.wav,0.593107043618346,resources/new_sounds_2/M1fish.wav,0.512562358276644,1,M,,,,,0,16,16,14,219.19815170008224,,,,,,,,,,,,,,,,,,,,,,,,,,,,,,,,,,,,,,,,,,,,,,,,,,,,,,,,,,,,,,,,,,,,,,,,,,,,219.1817545000231,219.19815170008224,219.69533070002217,0.5140040999976918,220.31170379999094,1.1303701000288129,220.79476530000102,220.79483356000856,221.4056225999957,221.4056225999957,221.87783090001903,221.87779056001455,222.40542590001132,222.40542590001132,222.40542590001132,,222.79615870001726,r,0.3878951999358833,None,None,0,,,,Colin,001,2024-02-04_21h23.07.933,M2_experiment1,2023.2.3,60.01828156802955,2024-02-04 21h23.21.521979 +0100,
5,ModifiedT,resources/new_sounds_not_modified/F4met.wav,0.44494520825283956,resources/new_sounds_2/F2met.wav,0.634104308390023,resources/new_sounds_not_modified/F1mesh.wav,0.5571319490698841,1,F,,,,,0,17,17,4,222.81353010004386,,,,,,,,,,,,,,,,,,,,,,,,,,,,,,,,,,,,,,,,,,,,,,,,,,,,,,,,,,,,,,,,,,,,,,,,,,,,222.7969660999952,222.81353010004386,223.31074680003803,0.5141650000587106,223.7605840000324,0.9639974000165239,224.24363400007132,224.2436382600572,224.89310660003684,224.89310660003684,225.3769200000679,225.3768033600645,225.94691749999765,225.94691749999765,225.94691749999765,226.44355820002966,226.4455617000349,t,0.48286410002037883,None,None,0,,,,Colin,001,2024-02-04_21h23.07.933,M2_experiment1,2023.2.3,60.01828156802955,2024-02-04 21h23.21.521979 +0100,
14,ModifiedSH,resources/new_sounds_not_modified/F2bosh.wav,0.494392229081527,resources/new_sounds_not_modified/F5bot.wav,0.485673207115724,resources/new_sounds_2/F1bosh.wav,0.520634920634921,1,F,,,,,0,18,18,13,226.46308770007454,,,,,,,,,,,,,,,,,,,,,,,,,,,,,,,,,,,,,,,,,,,,,,,,,,,,,,,,,,,,,,,,,,,,,,,,,,,,226.44638249999844,226.46308770007454,226.95957850001287,0.5135760999983177,227.45928800001275,1.0132962999632582,227.9426519999979,227.94230475998484,228.459054499981,,228.92534590000287,228.92536235996522,229.4637209000066,229.4637209000066,229.4637209000066,,229.87723730003927,r,0.4050573999993503,None,None,0,,,,Colin,001,2024-02-04_21h23.07.933,M2_experiment1,2023.2.3,60.01828156802955,2024-02-04 21h23.21.521979 +0100,
21,ModifiedSH,resources/new_sounds_not_modified/F5fish.wav,0.478583202882902,resources/new_sounds_2/F4fish.wav,0.366258503401361,resources/new_sounds_not_modified/F2fit.wav,0.374261916532497,3,F,,,,,0,19,19,20,229.89433580008335,,,,,,,,,,,,,,,,,,,,,,,,,,,,,,,,,,,,,,,,,,,,,,,,,,,,,,,,,,,,,,,,,,,,,,,,,,,,229.87801810004748,229.89433580008335,230.39161030005198,0.5139546000864357,230.87493890000042,0.9973035000730306,231.35798440000508,231.35780816001352,231.73291420005262,231.73291420005262,232.22431710001547,232.22441346000414,232.6105498999823,232.6105498999823,232.6105498999823,,232.90974959998857,t,0.2890517000341788,None,None,0,,,,Colin,001,2024-02-04_21h23.07.933,M2_experiment1,2023.2.3,60.01828156802955,2024-02-04 21h23.21.521979 +0100,
20,ModifiedSH,resources/new_sounds_2/F2push.wav,0.418027210884354,resources/new_sounds_not_modified/F4push.wav,0.436144678520506,resources/new_sounds_not_modified/F3put.wav,0.437781204290985,2,F,,,,,0,20,20,19,232.92826489999425,,,,,,,,,,,,,,,,,,,,,,,,,,,,,,,,,,,,,,,,,,,,,,,,,,,,,,,,,,,,,,,,,,,,,,,,,,,,232.91045800002757,232.92826489999425,233.42388620006386,0.5137860999675468,233.85707500006538,0.9470161000499502,234.34031400003005,234.3402044600807,234.80707049998455,,235.27345400000922,235.2733337599784,235.70641069998965,235.7309870000463,235.7309870000463,,236.12523480004165,t,0.4092508000321686,None,None,0,,,,Colin,001,2024-02-04_21h23.07.933,M2_experiment1,2023.2.3,60.01828156802955,2024-02-04 21h23.21.521979 +0100,
4,ModifiedT,resources/new_sounds_not_modified/M4mat.wav,0.4451593985921889,resources/new_sounds_2/M3mat.wav,0.494308390022676,resources/new_sounds_not_modified/M2mash.wav,0.7358947371573947,1,M,,,,,0,21,21,3,236.14277919998858,,,,,,,,,,,,,,,,,,,,,,,,,,,,,,,,,,,,,,,,,,,,,,,,,,,,,,,,,,,,,,,,,,,,,,,,,,,,236.1260061999783,236.14277919998858,236.63954290002584,0.5138969001127407,237.0892425000202,0.9635875000385568,237.57268129999284,237.57260216004215,238.07708680001087,238.07708680001087,238.57227970007807,238.57211935997475,239.30534399999306,239.32214619999286,239.32214619999286,239.80520070006605,239.97378320002463,t,0.6559776000212878,None,None,0,,,,Colin,001,2024-02-04_21h23.07.933,M2_experiment1,2023.2.3,60.01828156802955,2024-02-04 21h23.21.521979 +0100,
,,,,,,,,,,,,,,,,,,,,,,,,,,,,,,,,,,,,,,,,,,,,,,,,,,,,,,,,,,,,,,,,,,,,,,,,,,,,,,,,,,,,,,,,,,,,,,,,,,,,,,,,,,,,,,,,,,,,239.97442920005415,239.9894872000441,242.98756490007509,,,,,,,,
