ItemNb,Condition,Sound1,DurationSound1,Sound2,DurationSound2,Sound3,DurationSound3,ExpectedKey,Condition2,trials_task3.thisRepN,trials_task3.thisTrialN,trials_task3.thisN,trials_task3.thisIndex,trials_task1.thisRepN,trials_task1.thisTrialN,trials_task1.thisN,trials_task1.thisIndex,thisRow.t,notes,Welcome.started,textWelcomeMessage.started,keyWelcome.started,Welcome.stopped,keyWelcome.keys,keyWelcome.rt,keyWelcome.duration,Welcome_2.started,textWelcome2.started,key_resp_5.started,Welcome_2.stopped,key_resp_5.keys,key_resp_5.rt,key_resp_5.duration,Welcome_3.started,textWelcome3.started,key_resp_6.started,Welcome_3.stopped,key_resp_6.keys,key_resp_6.rt,key_resp_6.duration,blank.started,blank1.started,blank1.stopped,blank.stopped,volume_explanation.started,text_volume.started,key_resp_8.started,volume_explanation.stopped,key_resp_8.keys,key_resp_8.rt,key_resp_8.duration,volume.started,text_2.started,key_resp_7.started,sound_testvolume.started,volume.stopped,key_resp_7.keys,key_resp_7.rt,key_resp_7.duration,explanation.started,text.started,key_info_oddity.started,explanation.stopped,key_info_oddity.keys,key_info_oddity.rt,key_info_oddity.duration,task3.started,key_replay3.started,text_recording1_3.started,sound1_3.started,text_recording1_3.stopped,key_resp_question3.started,sound1_3.stopped,text_questiontask3.started,task3.stopped,key_resp_question3.keys,key_resp_question3.rt,key_resp_question3.duration,key_replay3.keys,explanation_3.started,text_4.started,key_resp_3.started,explanation_3.stopped,key_resp_3.keys,key_resp_3.rt,key_resp_3.duration,explanation_1.started,text_explanation_1.started,key_resp.started,explanation_1.stopped,key_resp.keys,key_resp.rt,key_resp.duration,task1.started,key_replay1.started,text_recording1.started,sound1.started,text_recording1.stopped,sound1.stopped,text_recording2.started,sound2.started,text_recording2.stopped,sound2.stopped,text_recording3.started,sound3.started,sound3.stopped,key_resp_question1.started,text_recording3.stopped,text_question1.started,task1.stopped,key_resp_question1.keys,key_resp_question1.rt,key_resp_question1.duration,key_replay1.keys,replay_count,Bye.started,text_6.started,Bye.stopped,participant,session,date,expName,psychopyVersion,frameRate,expStart,
,,,,,,,,,,,,,,,,,,,,0.0330993999959901,0.05131929996423423,0.05131929996423423,7.013379900017753,space,6.945070700021461,None,,,,,,,,,,,,,,,,,,,,,,,,,,,,,,,,,,,,,,,,,,,,,,,,,,,,,,,,,,,,,,,,,,,,,,,,,,,,,,,,,,,,,,,,,,,,,Ellie,001,2024-02-06_21h04.59.546,M2_experiment1,2023.2.3,60.00855722953251,2024-02-06 21h05.10.785483 +0100,
,,,,,,,,,,,,,,,,,,,,,,,,,,,7.013417099951766,7.029229799984023,7.029229799984023,10.063844799995422,space,3.0204662999603897,None,,,,,,,,,,,,,,,,,,,,,,,,,,,,,,,,,,,,,,,,,,,,,,,,,,,,,,,,,,,,,,,,,,,,,,,,,,,,,,,,,,,,,,Ellie,001,2024-02-06_21h04.59.546,M2_experiment1,2023.2.3,60.00855722953251,2024-02-06 21h05.10.785483 +0100,
,,,,,,,,,,,,,,,,,,,,,,,,,,,,,,,,,,10.063881400041282,10.080227500060573,10.080227500060573,11.814261900028214,space,1.7171851000748575,None,,,,,,,,,,,,,,,,,,,,,,,,,,,,,,,,,,,,,,,,,,,,,,,,,,,,,,,,,,,,,,,,,,,,,,,,,,,,,,,Ellie,001,2024-02-06_21h04.59.546,M2_experiment1,2023.2.3,60.00855722953251,2024-02-06 21h05.10.785483 +0100,
,,,,,,,,,,,,,,,,,,,,,,,,,,,,,,,,,,,,,,,,,11.814309800043702,11.828825399978086,12.828926000045612,12.813403100008145,12.813422000035644,12.828926000045612,12.828926000045612,15.19690590002574,space,2.3653146000579,None,,,,,,,,,,,,,,,,,,,,,,,,,,,,,,,,,,,,,,,,,,,,,,,,,,,,,,,,,,,,,,,,,,,,Ellie,001,2024-02-06_21h04.59.546,M2_experiment1,2023.2.3,60.00855722953251,2024-02-06 21h05.10.785483 +0100,
,,,,,,,,,,,,,,,,,,,,,,,,,,,,,,,,,,,,,,,,,,,,,,,,,,,,15.1969434999628,15.228919600020163,16.21121179999318,16.211286559980362,19.511271900031716,space,3.2894096999661997,None,,,,,,,,,,,,,,,,,,,,,,,,,,,,,,,,,,,,,,,,,,,,,,,,,,,,,,,,,,,,Ellie,001,2024-02-06_21h04.59.546,M2_experiment1,2023.2.3,60.00855722953251,2024-02-06 21h05.10.785483 +0100,
,,,,,,,,,,,,,,,,,,,,,,,,,,,,,,,,,,,,,,,,,,,,,,,,,,,,,,,,,,,,19.529224100057036,19.542220899951644,19.542220899951644,22.943465400021523,space,3.3921084000030532,None,,,,,,,,,,,,,,,,,,,,,,,,,,,,,,,,,,,,,,,,,,,,,,,,,,,,,Ellie,001,2024-02-06_21h04.59.546,M2_experiment1,2023.2.3,60.00855722953251,2024-02-06 21h05.10.785483 +0100,
53,NotModifiedSH,resources/new_sounds_not_modified/M6fresher.wav,0.558439616650624,None,None,None,None,e,M,0,0,0,29,,,,,22.98936510004569,,,,,,,,,,,,,,,,,,,,,,,,,,,,,,,,,,,,,,,,,,,,,,,,,22.97667869995348,22.98936510004569,23.44539510004688,0.5020484999986365,24.01063969999086,24.01063969999086,1.0680511000100523,24.511662999982946,25.932118199998513,e,1.8996927000116557,None,None,,,,,,,,,,,,,,,,,,,,,,,,,,,,,,,,,,,,,,,,Ellie,001,2024-02-06_21h04.59.546,M2_experiment1,2023.2.3,60.00855722953251,2024-02-06 21h05.10.785483 +0100,
52,NotModifiedSH,resources/new_sounds_not_modified/M4swoosh.wav,0.736227123531279,None,None,None,None,e,M,0,1,1,28,,,,,25.949372999952175,,,,,,,,,,,,,,,,,,,,,,,,,,,,,,,,,,,,,,,,,,,,,,,,,25.934950200025924,25.949372999952175,26.442819499992765,0.5086455999407917,27.189166800002567,27.17256279999856,1.2549707000143826,27.67292499996256,28.00870120001491,r,0.8269749999744818,None,None,,,,,,,,,,,,,,,,,,,,,,,,,,,,,,,,,,,,,,,,Ellie,001,2024-02-06_21h04.59.546,M2_experiment1,2023.2.3,60.00855722953251,2024-02-06 21h05.10.785483 +0100,
42,NotModifiedT,resources/new_sounds_not_modified/F4feat.wav,0.478604920503187,None,None,None,None,e,F,0,2,2,18,,,,,28.024464100017212,,,,,,,,,,,,,,,,,,,,,,,,,,,,,,,,,,,,,,,,,,,,,,,,,28.010120999999344,28.024464100017212,28.52226899995003,0.5127979000099003,29.005351800005883,28.988674200023524,0.9958746000193059,29.48856580001302,30.64110999996774,r,1.6452842999715358,None,None,,,,,,,,,,,,,,,,,,,,,,,,,,,,,,,,,,,,,,,,Ellie,001,2024-02-06_21h04.59.546,M2_experiment1,2023.2.3,60.00855722953251,2024-02-06 21h05.10.785483 +0100,
36,NotModifiedT,resources/new_sounds_not_modified/F4lot.wav,0.386965569882676,None,None,None,None,e,F,0,3,3,12,,,,,30.656992699950933,,,,,,,,,,,,,,,,,,,,,,,,,,,,,,,,,,,,,,,,,,,,,,,,,30.64264470001217,30.656992699950933,31.154871699982323,0.5128966000629589,31.55446250003297,31.537977100000717,0.9124798000557348,32.037794600008056,32.70706379995681,r,1.153553199954331,None,None,,,,,,,,,,,,,,,,,,,,,,,,,,,,,,,,,,,,,,,,Ellie,001,2024-02-06_21h04.59.546,M2_experiment1,2023.2.3,60.00855722953251,2024-02-06 21h05.10.785483 +0100,
47,ModifiedT,resources/new_sounds_2/M6root.wav,0.557210884353742,None,None,None,None,r,M,0,4,4,23,,,,,32.72275279997848,,,,,,,,,,,,,,,,,,,,,,,,,,,,,,,,,,,,,,,,,,,,,,,,,32.70850539999083,32.72275279997848,33.22056639997754,0.5127265000483021,33.78719549998641,33.77034419996198,1.07935700006783,34.270484999986365,35.08996610005852,r,1.3049052000278607,None,None,,,,,,,,,,,,,,,,,,,,,,,,,,,,,,,,,,,,,,,,Ellie,001,2024-02-06_21h04.59.546,M2_experiment1,2023.2.3,60.00855722953251,2024-02-06 21h05.10.785483 +0100,
44,ModifiedSH,resources/new_sounds_2/F2thrasher.wav,0.510249433106576,None,None,None,None,r,F,0,5,5,20,,,,,35.10591090004891,,,,,,,,,,,,,,,,,,,,,,,,,,,,,,,,,,,,,,,,,,,,,,,,,35.09153370000422,35.10591090004891,35.605987500050105,0.5152904000133276,36.12027690000832,36.103537300019525,1.029522700002417,36.605222600046545,36.721419299952686,e,0.6069667999399826,None,None,,,,,,,,,,,,,,,,,,,,,,,,,,,,,,,,,,,,,,,,Ellie,001,2024-02-06_21h04.59.546,M2_experiment1,2023.2.3,60.00855722953251,2024-02-06 21h05.10.785483 +0100,
24,NotModifiedT,resources/new_sounds_not_modified/F1party.wav,0.63399526438517,None,None,None,None,e,F,0,6,6,0,,,,,36.73930619994644,,,,,,,,,,,,,,,,,,,,,,,,,,,,,,,,,,,,,,,,,,,,,,,,,36.72291160002351,36.73930619994644,37.23863589996472,0.516399799962528,37.90416679996997,37.871126499958336,1.1819277999456972,38.37289780005813,38.40485339995939,e,0.5310705000301823,None,None,,,,,,,,,,,,,,,,,,,,,,,,,,,,,,,,,,,,,,,,Ellie,001,2024-02-06_21h04.59.546,M2_experiment1,2023.2.3,60.00855722953251,2024-02-06 21h05.10.785483 +0100,
26,ModifiedSH,resources/new_sounds_2/F2fleshing.wav,0.620294784580499,None,None,None,None,r,F,0,7,7,2,,,,,38.42389380000532,,,,,,,,,,,,,,,,,,,,,,,,,,,,,,,,,,,,,,,,,,,,,,,,,38.40635279996786,38.42389380000532,38.921876700012945,0.5162942999741063,39.55734769999981,39.54040050006006,1.1517677999800071,40.038943400024436,40.93724030000158,r,1.3844414000632241,None,None,,,,,,,,,,,,,,,,,,,,,,,,,,,,,,,,,,,,,,,,Ellie,001,2024-02-06_21h04.59.546,M2_experiment1,2023.2.3,60.00855722953251,2024-02-06 21h05.10.785483 +0100,
39,ModifiedSH,resources/new_sounds_2/M7fresher.wav,0.497256235827664,None,None,None,None,r,M,0,8,8,15,,,,,40.95593659998849,,,,,,,,,,,,,,,,,,,,,,,,,,,,,,,,,,,,,,,,,,,,,,,,,40.93865140003618,40.95593659998849,41.45439400000032,0.5163980999495834,41.98021860001609,41.950491399969906,,42.43782300001476,43.1195806999458,r,1.1479896999662742,None,None,,,,,,,,,,,,,,,,,,,,,,,,,,,,,,,,,,,,,,,,Ellie,001,2024-02-06_21h04.59.546,M2_experiment1,2023.2.3,60.00855722953251,2024-02-06 21h05.10.785483 +0100,
51,NotModifiedSH,resources/new_sounds_not_modified/M4mosh.wav,0.573267020202984,None,None,None,None,e,M,0,9,9,27,,,,,43.13808269996662,,,,,,,,,,,,,,,,,,,,,,,,,,,,,,,,,,,,,,,,,,,,,,,,,43.120909000048414,43.13808269996662,43.63678059994709,0.5165159999160096,44.21888649999164,44.21888649999164,1.0993091999553144,44.70400949998293,44.97330780001357,e,0.7427483000792563,None,None,,,,,,,,,,,,,,,,,,,,,,,,,,,,,,,,,,,,,,,,Ellie,001,2024-02-06_21h04.59.546,M2_experiment1,2023.2.3,60.00855722953251,2024-02-06 21h05.10.785483 +0100,
31,NotModifiedT,resources/new_sounds_not_modified/F3footer.wav,0.573733808005514,None,None,None,None,e,F,0,10,10,7,,,,,44.99016639997717,,,,,,,,,,,,,,,,,,,,,,,,,,,,,,,,,,,,,,,,,,,,,,,,,44.974731800029986,44.99016639997717,45.4864385999972,0.5123895999277011,46.096839700010605,46.06593579996843,1.0925214999588206,46.55366600002162,46.708710900042206,e,0.6373348999768496,None,None,,,,,,,,,,,,,,,,,,,,,,,,,,,,,,,,,,,,,,,,Ellie,001,2024-02-06_21h04.59.546,M2_experiment1,2023.2.3,60.00855722953251,2024-02-06 21h05.10.785483 +0100,
49,NotModifiedT,resources/new_sounds_not_modified/M2lot.wav,0.466575772426751,None,None,None,None,e,M,0,11,11,25,,,,,46.725223800051026,,,,,,,,,,,,,,,,,,,,,,,,,,,,,,,,,,,,,,,,,,,,,,,,,46.71084099996369,46.725223800051026,47.21896299999207,0.508938500075601,47.68629159999546,47.68629159999546,0.9769532000645995,48.18884319998324,48.558064299984835,e,0.8617342000361532,None,None,,,,,,,,,,,,,,,,,,,,,,,,,,,,,,,,,,,,,,,,Ellie,001,2024-02-06_21h04.59.546,M2_experiment1,2023.2.3,60.00855722953251,2024-02-06 21h05.10.785483 +0100,
48,ModifiedT,resources/new_sounds_2/M3lottery.wav,0.649773242630385,None,None,None,None,r,M,0,12,12,24,,,,,48.574776599998586,,,,,,,,,,,,,,,,,,,,,,,,,,,,,,,,,,,,,,,,,,,,,,,,,48.55989969999064,48.574776599998586,49.068436500034295,0.5092770999763161,49.740870899986476,49.71665660000872,,50.21661550004501,50.2866491000168,e,0.5642661999445409,None,None,,,,,,,,,,,,,,,,,,,,,,,,,,,,,,,,,,,,,,,,Ellie,001,2024-02-06_21h04.59.546,M2_experiment1,2023.2.3,60.00855722953251,2024-02-06 21h05.10.785483 +0100,
54,NotModifiedSH,resources/new_sounds_not_modified/F5thrasher.wav,0.585496600933162,None,None,None,None,e,F,0,13,13,30,,,,,50.3031781000318,,,,,,,,,,,,,,,,,,,,,,,,,,,,,,,,,,,,,,,,,,,,,,,,,50.28764170000795,50.3031781000318,50.799582300009206,0.5124134999932721,51.41617470001802,51.38273630000185,,51.88288269995246,52.45100360002834,e,1.057632299955003,None,None,,,,,,,,,,,,,,,,,,,,,,,,,,,,,,,,,,,,,,,,Ellie,001,2024-02-06_21h04.59.546,M2_experiment1,2023.2.3,60.00855722953251,2024-02-06 21h05.10.785483 +0100,
28,ModifiedSH,resources/new_sounds_2/F3flushing.wav,0.687845804988662,None,None,None,None,r,F,0,14,14,4,,,,,52.46743570000399,,,,,,,,,,,,,,,,,,,,,,,,,,,,,,,,,,,,,,,,,,,,,,,,,52.45199480000883,52.46743570000399,52.965605700039305,0.5140480999834836,53.678672099951655,53.64862270001322,,54.149021700024605,54.65010850003455,r,0.9918497999897227,None,None,,,,,,,,,,,,,,,,,,,,,,,,,,,,,,,,,,,,,,,,Ellie,001,2024-02-06_21h04.59.546,M2_experiment1,2023.2.3,60.00855722953251,2024-02-06 21h05.10.785483 +0100,
43,NotModifiedT,resources/new_sounds_not_modified/F2feat.wav,0.644364234737267,None,None,None,None,e,F,0,15,15,19,,,,,54.66669700003695,,,,,,,,,,,,,,,,,,,,,,,,,,,,,,,,,,,,,,,,,,,,,,,,,54.651231099967845,54.66669700003695,55.16489110002294,0.5141697999788448,55.8145904999692,55.79789339995477,1.1638612999813631,56.29773740004748,56.36639280000236,e,0.5618358000647277,None,None,,,,,,,,,,,,,,,,,,,,,,,,,,,,,,,,,,,,,,,,Ellie,001,2024-02-06_21h04.59.546,M2_experiment1,2023.2.3,60.00855722953251,2024-02-06 21h05.10.785483 +0100,
35,NotModifiedSH,resources/new_sounds_not_modified/M7mosh.wav,0.618134342110551,None,None,None,None,e,M,0,16,16,11,,,,,56.382810699986294,,,,,,,,,,,,,,,,,,,,,,,,,,,,,,,,,,,,,,,,,,,,,,,,,56.367318699951284,56.382810699986294,56.88091349997558,0.5140307999681681,57.52885660005268,57.49741129996255,,57.997270600055344,58.583783800015226,e,1.0805113000096753,None,None,,,,,,,,,,,,,,,,,,,,,,,,,,,,,,,,,,,,,,,,Ellie,001,2024-02-06_21h04.59.546,M2_experiment1,2023.2.3,60.00855722953251,2024-02-06 21h05.10.785483 +0100,
45,NotModifiedSH,resources/new_sounds_not_modified/F3mosh.wav,0.628649263052651,None,None,None,None,e,F,0,17,17,21,,,,,58.61107600003015,,,,,,,,,,,,,,,,,,,,,,,,,,,,,,,,,,,,,,,,,,,,,,,,,58.5849400999723,58.61107600003015,59.096787599963136,0.5124634000239894,59.729802899993956,59.71314120001625,1.1454810000723228,60.21312289999332,60.39850180002395,r,0.672031799913384,None,None,,,,,,,,,,,,,,,,,,,,,,,,,,,,,,,,,,,,,,,,Ellie,001,2024-02-06_21h04.59.546,M2_experiment1,2023.2.3,60.00855722953251,2024-02-06 21h05.10.785483 +0100,
27,ModifiedSH,resources/new_sounds_2/M4flesh.wav,0.722767978649223,None,None,None,None,r,M,0,18,18,3,,,,,60.41497539996635,,,,,,,,,,,,,,,,,,,,,,,,,,,,,,,,,,,,,,,,,,,,,,,,,60.39939919998869,60.41497539996635,60.912803199957125,0.5138345999876037,61.64587670005858,61.62924170005135,,62.129119500052184,62.5146746999817,r,0.8681650999933481,None,None,,,,,,,,,,,,,,,,,,,,,,,,,,,,,,,,,,,,,,,,Ellie,001,2024-02-06_21h04.59.546,M2_experiment1,2023.2.3,60.00855722953251,2024-02-06 21h05.10.785483 +0100,
30,ModifiedT,resources/new_sounds_2/F3footer.wav,0.597777777777778,None,None,None,None,r,F,0,19,19,6,,,,,62.53063359996304,,,,,,,,,,,,,,,,,,,,,,,,,,,,,,,,,,,,,,,,,,,,,,,,,62.51558470004238,62.53063359996304,63.02869099995587,0.5135527999373153,63.62852709996514,63.62852709996514,1.1138606999302283,64.12853330001235,65.07985450001433,e,1.4375799000263214,None,None,,,,,,,,,,,,,,,,,,,,,,,,,,,,,,,,,,,,,,,,Ellie,001,2024-02-06_21h04.59.546,M2_experiment1,2023.2.3,60.00855722953251,2024-02-06 21h05.10.785483 +0100,
33,ModifiedT,resources/new_sounds_2/M7fatter.wav,0.644739229024943,None,None,None,None,r,M,0,20,20,9,,,,,65.09629190003034,,,,,,,,,,,,,,,,,,,,,,,,,,,,,,,,,,,,,,,,,,,,,,,,,65.08076599997003,65.09629190003034,65.59466079995036,0.5143409000011161,66.2444811000023,66.22771700005978,1.1641541999997571,66.72762669995427,67.07925489998888,e,0.8402333999983966,None,None,,,,,,,,,,,,,,,,,,,,,,,,,,,,,,,,,,,,,,,,Ellie,001,2024-02-06_21h04.59.546,M2_experiment1,2023.2.3,60.00855722953251,2024-02-06 21h05.10.785483 +0100,
41,ModifiedT,resources/new_sounds_2/F4utter.wav,0.53952380952381,None,None,None,None,r,F,0,21,21,17,,,,,67.09577360004187,,,,,,,,,,,,,,,,,,,,,,,,,,,,,,,,,,,,,,,,,,,,,,,,,67.08016600005794,67.09577360004187,67.59397960000206,0.5142626999877393,68.14372279995587,68.1270454999758,1.064000399899669,68.62690070003737,69.2120018999558,r,1.0707913000369444,None,None,,,,,,,,,,,,,,,,,,,,,,,,,,,,,,,,,,,,,,,,Ellie,001,2024-02-06_21h04.59.546,M2_experiment1,2023.2.3,60.00855722953251,2024-02-06 21h05.10.785483 +0100,
25,ModifiedSH,resources/new_sounds_2/F1swoosh.wav,0.770486715748874,None,None,None,None,r,F,0,22,22,1,,,,,69.22847490001004,,,,,,,,,,,,,,,,,,,,,,,,,,,,,,,,,,,,,,,,,,,,,,,,,69.21290319995023,69.22847490001004,69.72668790002353,0.5142127000726759,70.50956999999471,70.49299659999087,,70.99286400002893,71.41128470003605,r,0.9056087000062689,None,None,,,,,,,,,,,,,,,,,,,,,,,,,,,,,,,,,,,,,,,,Ellie,001,2024-02-06_21h04.59.546,M2_experiment1,2023.2.3,60.00855722953251,2024-02-06 21h05.10.785483 +0100,
40,ModifiedSH,resources/new_sounds_2/F5fresher.wav,0.567437641723356,None,None,None,None,r,F,0,23,23,16,,,,,71.42749250005,,,,,,,,,,,,,,,,,,,,,,,,,,,,,,,,,,,,,,,,,,,,,,,,,71.41221380000934,71.42749250005,71.92572930001188,0.5139718999853358,72.4955811999971,72.4955811999971,,72.9921487000538,73.89369569998235,r,1.3877612999640405,None,None,,,,,,,,,,,,,,,,,,,,,,,,,,,,,,,,,,,,,,,,Ellie,001,2024-02-06_21h04.59.546,M2_experiment1,2023.2.3,60.00855722953251,2024-02-06 21h05.10.785483 +0100,
50,NotModifiedSH,resources/new_sounds_not_modified/M3dish.wav,0.409302075267592,None,None,None,None,e,M,0,24,24,26,,,,,73.90982749999966,,,,,,,,,,,,,,,,,,,,,,,,,,,,,,,,,,,,,,,,,,,,,,,,,73.89461079996545,73.90982749999966,74.40824520005845,0.5140634999843314,74.82474399998318,74.80819939996582,0.9305753000080585,75.30797449999955,75.393361800001,e,0.5815436999546364,None,None,,,,,,,,,,,,,,,,,,,,,,,,,,,,,,,,,,,,,,,,Ellie,001,2024-02-06_21h04.59.546,M2_experiment1,2023.2.3,60.00855722953251,2024-02-06 21h05.10.785483 +0100,
38,ModifiedT,resources/new_sounds_2/M7butter.wav,0.44172335600907,None,None,None,None,r,M,0,25,25,14,,,,,75.40982179995626,,,,,,,,,,,,,,,,,,,,,,,,,,,,,,,,,,,,,,,,,,,,,,,,,75.39451530005317,75.40982179995626,75.9076598000247,0.5136559000238776,76.35759639996104,76.34098710003309,0.9635890999343246,76.84085329994559,76.95935020002071,r,0.6163254999555647,None,None,,,,,,,,,,,,,,,,,,,,,,,,,,,,,,,,,,,,,,,,Ellie,001,2024-02-06_21h04.59.546,M2_experiment1,2023.2.3,60.00855722953251,2024-02-06 21h05.10.785483 +0100,
46,NotModifiedT,resources/new_sounds_not_modified/M6pet.wav,0.506976177381986,None,None,None,None,e,M,0,26,26,22,,,,,76.97550109995063,,,,,,,,,,,,,,,,,,,,,,,,,,,,,,,,,,,,,,,,,,,,,,,,,76.96025290002581,76.97550109995063,77.47385619999841,0.5140414000488818,77.9903331999667,77.97368429997005,1.0305328000104055,78.47380739997607,78.60868720000144,e,0.622780799982138,None,None,,,,,,,,,,,,,,,,,,,,,,,,,,,,,,,,,,,,,,,,Ellie,001,2024-02-06_21h04.59.546,M2_experiment1,2023.2.3,60.00855722953251,2024-02-06 21h05.10.785483 +0100,
32,ModifiedT,resources/new_sounds_2/M2city.wav,0.658866213151928,None,None,None,None,r,M,0,27,27,8,,,,,78.62539729999844,,,,,,,,,,,,,,,,,,,,,,,,,,,,,,,,,,,,,,,,,,,,,,,,,78.60959829995409,78.62539729999844,79.12330920004752,0.5141368000768125,79.79000110004563,79.77310580003541,1.1808291000779718,80.2727774999803,80.42442119994666,e,0.6423820001073182,None,None,,,,,,,,,,,,,,,,,,,,,,,,,,,,,,,,,,,,,,,,Ellie,001,2024-02-06_21h04.59.546,M2_experiment1,2023.2.3,60.00855722953251,2024-02-06 21h05.10.785483 +0100,
34,ModifiedSH,resources/new_sounds_2/M7mosh.wav,0.486031746031746,None,None,None,None,r,M,0,28,28,10,,,,,80.44017279997934,,,,,,,,,,,,,,,,,,,,,,,,,,,,,,,,,,,,,,,,,,,,,,,,,80.42518530006055,80.44017279997934,80.93916940002237,0.5143495000666007,81.43904650001787,81.42241009999998,1.0142243000445887,81.92448929999955,82.20916259998921,e,0.7666856000432745,None,None,,,,,,,,,,,,,,,,,,,,,,,,,,,,,,,,,,,,,,,,Ellie,001,2024-02-06_21h04.59.546,M2_experiment1,2023.2.3,60.00855722953251,2024-02-06 21h05.10.785483 +0100,
29,NotModifiedT,resources/new_sounds_2/M4getting.wav,0.612123590008089,None,None,None,None,e,M,0,29,29,5,,,,,82.22634199995082,,,,,,,,,,,,,,,,,,,,,,,,,,,,,,,,,,,,,,,,,,,,,,,,,82.21065849997103,82.22634199995082,82.72359079995658,0.5136407000245526,83.35333900002297,83.326444300008,1.1433827000437304,83.82382890000008,84.39648160000797,r,1.0524941999465227,None,None,,,,,,,,,,,,,,,,,,,,,,,,,,,,,,,,,,,,,,,,Ellie,001,2024-02-06_21h04.59.546,M2_experiment1,2023.2.3,60.00855722953251,2024-02-06 21h05.10.785483 +0100,
37,ModifiedT,resources/new_sounds_2/F4lot.wav,0.449274376417234,None,None,None,None,r,F,0,30,30,13,,,,,84.41266609996092,,,,,,,,,,,,,,,,,,,,,,,,,,,,,,,,,,,,,,,,,,,,,,,,,84.39895459997933,84.41266609996092,84.90668310003821,0.508560600108467,85.39144879998639,85.35504789999686,0.957675600075163,85.85614839999471,86.72206940001342,e,1.3538281000219285,None,None,,,,,,,,,,,,,,,,,,,,,,,,,,,,,,,,,,,,,,,,Ellie,001,2024-02-06_21h04.59.546,M2_experiment1,2023.2.3,60.00855722953251,2024-02-06 21h05.10.785483 +0100,
,,,,,,,,,,,,,,,,,,,,,,,,,,,,,,,,,,,,,,,,,,,,,,,,,,,,,,,,,,,,,,,,,,,,,,,,,,,,,,,,86.7226335000014,86.73842549999245,86.73842549999245,89.45433380000759,space,2.7097276999847963,None,,,,,,,,,,,,,,,,,,,,,,,,,,,,,,,,,Ellie,001,2024-02-06_21h04.59.546,M2_experiment1,2023.2.3,60.00855722953251,2024-02-06 21h05.10.785483 +0100,
,,,,,,,,,,,,,,,,,,,,,,,,,,,,,,,,,,,,,,,,,,,,,,,,,,,,,,,,,,,,,,,,,,,,,,,,,,,,,,,,,,,,,,,89.45437599997967,89.47062979999464,89.47062979999464,90.5205646000104,space,1.0458492999896407,None,,,,,,,,,,,,,,,,,,,,,,,,,,Ellie,001,2024-02-06_21h04.59.546,M2_experiment1,2023.2.3,60.00855722953251,2024-02-06 21h05.10.785483 +0100,
4,ModifiedT,resources/new_sounds_not_modified/M4mat.wav,0.4451593985921889,resources/new_sounds_2/M3mat.wav,0.494308390022676,resources/new_sounds_not_modified/M2mash.wav,0.7358947371573947,1,M,,,,,0,0,0,3,90.56734810001217,,,,,,,,,,,,,,,,,,,,,,,,,,,,,,,,,,,,,,,,,,,,,,,,,,,,,,,,,,,,,,,,,,,,,,,,,,,,90.550749200047,90.56734810001217,91.03577169997152,0.515266300062649,91.48576429998502,0.965258700074628,91.9721268999856,91.96943715999369,92.48594679997768,92.48594679997768,92.97170150000602,92.9690808599582,93.72073990001809,93.72073990001809,93.73707929998636,94.20555610000156,95.84185970004182,t,2.1093447000021115,None,None,0,,,,Ellie,001,2024-02-06_21h04.59.546,M2_experiment1,2023.2.3,60.00855722953251,2024-02-06 21h05.10.785483 +0100,
5,ModifiedT,resources/new_sounds_not_modified/F4met.wav,0.44494520825283956,resources/new_sounds_2/F2met.wav,0.634104308390023,resources/new_sounds_not_modified/F1mesh.wav,0.5571319490698841,1,F,,,,,0,1,1,4,95.86357419996057,,,,,,,,,,,,,,,,,,,,,,,,,,,,,,,,,,,,,,,,,,,,,,,,,,,,,,,,,,,,,,,,,,,,,,,,,,,,95.84493250004016,95.86357419996057,96.35265240003355,0.5084991999901831,96.82691219996195,0.9544718000106514,97.30255130003206,97.30096715996042,97.95266179996543,97.95266179996543,98.43663470004685,98.43430425999686,,99.01306639995892,99.03378880000673,99.48674279998522,101.33691199996974,r,2.305860699969344,None,None,0,,,,Ellie,001,2024-02-06_21h04.59.546,M2_experiment1,2023.2.3,60.00855722953251,2024-02-06 21h05.10.785483 +0100,
15,ModifiedSH,resources/new_sounds_not_modified/M2fish.wav,0.602031419699607,resources/new_sounds_not_modified/M5fit.wav,0.593107043618346,resources/new_sounds_2/M1fish.wav,0.512562358276644,1,M,,,,,0,2,2,14,101.35437910002656,,,,,,,,,,,,,,,,,,,,,,,,,,,,,,,,,,,,,,,,,,,,,,,,,,,,,,,,,,,,,,,,,,,,,,,,,,,,101.33792960003484,101.35437910002656,101.84925319999456,0.5118292000843212,102.46569260000251,1.1282670000800863,102.94920280005317,102.9490088599734,103.55378600000404,103.55378600000404,104.03194540005643,104.03179495995865,104.56075649999548,104.56075649999548,104.56075649999548,105.0489262000192,107.2687402999727,r,2.703460199991241,None,None,0,,,,Ellie,001,2024-02-06_21h04.59.546,M2_experiment1,2023.2.3,60.00855722953251,2024-02-06 21h05.10.785483 +0100,
20,ModifiedSH,resources/new_sounds_2/F2push.wav,0.418027210884354,resources/new_sounds_not_modified/F4push.wav,0.436144678520506,resources/new_sounds_not_modified/F3put.wav,0.437781204290985,2,F,,,,,0,3,3,19,107.28578689997084,,,,,,,,,,,,,,,,,,,,,,,,,,,,,,,,,,,,,,,,,,,,,,,,,,,,,,,,,,,,,,,,,,,,,,,,,,,,107.26969380001538,107.28578689997084,107.78050480003003,0.511262199957855,108.22767589997966,0.9584280999843031,108.69701370003168,108.69716065998655,109.15031040005852,109.15031040005852,109.6303885000525,109.63025395995938,110.08301229996141,110.06370699999388,110.08301229996141,110.56457389995921,111.25316520000342,t,1.1866383999586105,None,None,0,,,,Ellie,001,2024-02-06_21h04.59.546,M2_experiment1,2023.2.3,60.00855722953251,2024-02-06 21h05.10.785483 +0100,
1,ModifiedT,resources/new_sounds_not_modified/F2fit.wav,0.374261916532496,resources/new_sounds_not_modified/F5fish.wav,0.478583202882902,resources/new_sounds_2/F4fit.wav,0.41736473916697,1,F,,,,,0,4,4,0,111.26962150004692,,,,,,,,,,,,,,,,,,,,,,,,,,,,,,,,,,,,,,,,,,,,,,,,,,,,,,,,,,,,,,,,,,,,,,,,,,,,111.2548704999499,111.26962150004692,111.76281079999171,0.5086436999263242,112.14575689996127,0.8915883000008762,112.63063190004323,112.62937966005411,113.11984020005912,113.11984020005912,113.6123536999803,113.6120196599979,,114.02859190001618,114.02859190001618,114.53346219996456,114.73085609998088,t,0.6852716999128461,None,None,0,,,,Ellie,001,2024-02-06_21h04.59.546,M2_experiment1,2023.2.3,60.00855722953251,2024-02-06 21h05.10.785483 +0100,
3,ModifiedT,resources/new_sounds_2/F5mat.wav,0.565396825396825,resources/new_sounds_not_modified/F4mash.wav,0.38066522534541036,resources/new_sounds_not_modified/F2mat.wav,0.5007174554648515,3,F,,,,,0,5,5,2,114.75826210004743,,,,,,,,,,,,,,,,,,,,,,,,,,,,,,,,,,,,,,,,,,,,,,,,,,,,,,,,,,,,,,,,,,,,,,,,,,,,114.73164600005839,114.75826210004743,115.24445430003107,0.5131824999116361,115.81098399998154,1.0797141999937594,116.31095299997833,116.31086095997598,116.70420859998558,116.70420859998558,117.1793527000118,117.17760725999251,117.70234670001082,117.70234670001082,117.70234670001082,118.18047050002497,119.6115504000336,r,1.889186599990353,None,None,0,,,,Ellie,001,2024-02-06_21h04.59.546,M2_experiment1,2023.2.3,60.00855722953251,2024-02-06 21h05.10.785483 +0100,
22,ModifiedSH,resources/new_sounds_not_modified/F1mash.wav,0.601753675244161,resources/new_sounds_2/F3mash.wav,0.42437641723356,resources/new_sounds_not_modified/F4mat.wav,0.401181209050264,3,F,,,,,0,6,6,21,119.6310775000602,,,,,,,,,,,,,,,,,,,,,,,,,,,,,,,,,,,,,,,,,,,,,,,,,,,,,,,,,,,,,,,,,,,,,,,,,,,,119.61293489998206,119.6310775000602,120.12787399999797,0.5156107000075281,120.75223680003546,1.1399728000396863,121.22849939996377,121.22619175997097,121.66564799996559,121.66564799996559,122.14545640000142,122.14267886003945,122.5565458999481,122.5565458999481,122.5565458999481,123.04567779996432,123.09857380005997,e,0.5387254999950528,None,None,0,,,,Ellie,001,2024-02-06_21h04.59.546,M2_experiment1,2023.2.3,60.00855722953251,2024-02-06 21h05.10.785483 +0100,
9,ModifiedSH,resources/new_sounds_not_modified/M4bot.wav,0.453615769026229,resources/new_sounds_not_modified/M3bosh.wav,0.524217377306996,resources/new_sounds_2/M2bosh.wav,0.387165532879819,2,M,,,,,0,7,7,8,123.11940019996837,,,,,,,,,,,,,,,,,,,,,,,,,,,,,,,,,,,,,,,,,,,,,,,,,,,,,,,,,,,,,,,,,,,,,,,,,,,,123.10050619998947,123.11940019996837,123.61013239994645,0.5105538999196142,124.0970423000399,0.9735377000179142,124.5581996999681,124.55800085996744,125.09483570000157,125.09483570000157,125.59121400001459,125.59102565997746,,125.99169920000713,126.00876810005866,126.47384989995044,126.60909150005318,t,0.61341650004033,None,None,0,,,,Ellie,001,2024-02-06_21h04.59.546,M2_experiment1,2023.2.3,60.00855722953251,2024-02-06 21h05.10.785483 +0100,
6,ModifiedT,resources/new_sounds_not_modified/M1met.wav,0.532038259057699,resources/new_sounds_2/M3met.wav,0.558503401360544,resources/new_sounds_not_modified/M5mesh.wav,0.5032130872900709,1,M,,,,,0,8,8,5,126.6270080000395,,,,,,,,,,,,,,,,,,,,,,,,,,,,,,,,,,,,,,,,,,,,,,,,,,,,,,,,,,,,,,,,,,,,,,,,,,,,126.60987090005074,126.6270080000395,127.12371820001863,0.5142261000582948,127.65709720004816,1.04760259995237,128.1567231999943,128.1566894599702,128.7282273999881,128.7282273999881,129.2063476999756,129.20620416004675,,129.7244036999764,129.739400499966,130.2059762000572,130.2582883000141,r,0.5251532000256702,None,None,0,,,,Ellie,001,2024-02-06_21h04.59.546,M2_experiment1,2023.2.3,60.00855722953251,2024-02-06 21h05.10.785483 +0100,
19,ModifiedT,resources/new_sounds_2/F2put.wav,0.521360544217687,resources/new_sounds_not_modified/F4push.wav,0.436144678520506,resources/new_sounds_not_modified/F5put.wav,0.363522850118329,2,F,,,,,0,9,9,18,130.27618010004517,,,,,,,,,,,,,,,,,,,,,,,,,,,,,,,,,,,,,,,,,,,,,,,,,,,,,,,,,,,,,,,,,,,,,,,,,,,,130.2590913999593,130.27618010004517,130.7724952000426,0.5137681000633165,131.30556300003082,1.0468401000835001,131.7887184000574,131.78871875994372,132.2392259000335,132.2392259000335,132.72180129995104,132.72179376001003,133.09649499994703,133.09649499994703,133.09649499994703,133.58835550001822,134.0754648000002,t,0.972847199998796,None,None,0,,,,Ellie,001,2024-02-06_21h04.59.546,M2_experiment1,2023.2.3,60.00855722953251,2024-02-06 21h05.10.785483 +0100,
2,ModifiedSh,resources/new_sounds_not_modified/F2fish.wav,0.528250066930233,resources/new_sounds_2/F1fit.wav,0.423218058079413,resources/new_sounds_not_modified/F5fit.wav,0.2975247836995,3,F,,,,,0,10,10,1,134.09162760002073,,,,,,,,,,,,,,,,,,,,,,,,,,,,,,,,,,,,,,,,,,,,,,,,,,,,,,,,,,,,,,,,,,,,,,,,,,,,134.07626620004885,134.09162760002073,134.5878582999576,0.5119711000006646,135.12077539996244,1.0448862999910489,135.60417389997747,135.60402986004482,136.04976129997522,136.04976129997522,136.53764560003765,136.53736916002816,136.84960980003234,136.84960980003234,136.84960980003234,137.33690600004047,137.88854439998977,e,1.0298253999790177,None,None,0,,,,Ellie,001,2024-02-06_21h04.59.546,M2_experiment1,2023.2.3,60.00855722953251,2024-02-06 21h05.10.785483 +0100,
21,ModifiedSH,resources/new_sounds_not_modified/F5fish.wav,0.478583202882902,resources/new_sounds_2/F4fish.wav,0.366258503401361,resources/new_sounds_not_modified/F2fit.wav,0.374261916532497,3,F,,,,,0,11,11,20,137.9060613999609,,,,,,,,,,,,,,,,,,,,,,,,,,,,,,,,,,,,,,,,,,,,,,,,,,,,,,,,,,,,,,,,,,,,,,,,,,,,137.88933429995086,137.9060613999609,138.40340339997783,0.5144458999857306,138.88642210001126,0.9974497999064624,139.37202739994973,139.37029955994802,139.74893909995444,139.74893909995444,140.23877479997464,140.23661046002525,140.63621479994617,140.63621479994617,140.63621479994617,141.11908640002366,141.7055649999529,e,1.0511673000873998,None,None,0,,,,Ellie,001,2024-02-06_21h04.59.546,M2_experiment1,2023.2.3,60.00855722953251,2024-02-06 21h05.10.785483 +0100,
16,ModifiedT,resources/new_sounds_2/M2fit.wav,0.646553287981859,resources/new_sounds_not_modified/M4fit.wav,0.508424667314028,resources/new_sounds_not_modified/M5fish.wav,0.451129071842058,2,M,,,,,0,12,12,15,141.7235599999549,,,,,,,,,,,,,,,,,,,,,,,,,,,,,,,,,,,,,,,,,,,,,,,,,,,,,,,,,,,,,,,,,,,,,,,,,,,,141.70678280002903,141.7235599999549,142.2187831000192,0.5125729999272153,142.8684244999895,1.1622135000070557,143.36833219998516,143.3681286599487,143.88897009997163,143.88897009997163,144.3678517000517,144.3679353599902,144.83559409994632,144.81771059997845,144.83559409994632,,145.2032973000314,t,0.3791567999869585,None,None,0,,,,Ellie,001,2024-02-06_21h04.59.546,M2_experiment1,2023.2.3,60.00855722953251,2024-02-06 21h05.10.785483 +0100,
17,ModifiedT,resources/new_sounds_2/M2bosh.wav,0.387165532879819,resources/new_sounds_not_modified/M6bot.wav,0.501070841911371,resources/new_sounds_not_modified/M5bosh.wav,0.597358038485993,2,M,,,,,0,13,13,16,145.2207590000471,,,,,,,,,,,,,,,,,,,,,,,,,,,,,,,,,,,,,,,,,,,,,,,,,,,,,,,,,,,,,,,,,,,,,,,,,,,,145.2041718000546,145.2207590000471,145.71748340001795,0.5137211000546813,146.11734180001076,0.9135752000147477,146.60044670000207,146.60056725998874,147.11711939994711,147.11711939994711,147.6002402000595,147.60020985994487,148.20807509997394,148.20807509997394,148.20807509997394,148.70003029995132,149.2388608000474,r,1.022777899983339,None,None,0,,,,Ellie,001,2024-02-06_21h04.59.546,M2_experiment1,2023.2.3,60.00855722953251,2024-02-06 21h05.10.785483 +0100,
18,ModifiedT,resources/new_sounds_2/M2put.wav,0.532199546485261,resources/new_sounds_not_modified/M7put.wav,0.410382098763918,resources/new_sounds_not_modified/M5push.wav,0.499025816019625,2,M,,,,,0,14,14,17,149.25492169999052,,,,,,,,,,,,,,,,,,,,,,,,,,,,,,,,,,,,,,,,,,,,,,,,,,,,,,,,,,,,,,,,,,,,,,,,,,,,149.2397723000031,149.25492169999052,149.74933230003808,0.5100029000313953,150.28274139994755,1.0434109000489116,150.7824048999464,150.78243855996988,151.2110032000346,151.2110032000346,151.68213209998794,151.68210786003618,152.199767800048,152.199767800048,152.199767800048,152.6818889999995,153.2516851000255,r,1.0341617000522092,None,None,0,,,,Ellie,001,2024-02-06_21h04.59.546,M2_experiment1,2023.2.3,60.00855722953251,2024-02-06 21h05.10.785483 +0100,
7,ModifiedSH,resources/new_sounds_2/M1bosh.wav,0.4574829931972789,resources/new_sounds_not_modified/M2bot.wav,0.415863975908209,resources/new_sounds_not_modified/M4bosh.wav,0.4533657452807347,3,M,,,,,0,15,15,6,153.2682252000086,,,,,,,,,,,,,,,,,,,,,,,,,,,,,,,,,,,,,,,,,,,,,,,,,,,,,,,,,,,,,,,,,,,,,,,,,,,,153.25266969995573,153.2682252000086,153.76460480003152,0.5123417000286281,154.23118730005808,0.9789264000719413,154.71442650002427,154.71459726004394,155.14441029995214,155.14441029995214,155.63081730005797,155.63068836000747,156.10059010004625,156.10059010004625,156.10059010004625,156.58060089999344,157.13374049996492,r,1.0307937000179663,None,None,0,,,,Ellie,001,2024-02-06_21h04.59.546,M2_experiment1,2023.2.3,60.00855722953251,2024-02-06 21h05.10.785483 +0100,
11,ModifiedSH,resources/new_sounds_not_modified/M1fish.wav,0.569506825661794,resources/new_sounds_2/M7fit.wav,0.485691609977324,resources/new_sounds_not_modified/M3fit.wav,0.479334255844424,3,M,,,,,0,16,16,10,157.15012020000722,,,,,,,,,,,,,,,,,,,,,,,,,,,,,,,,,,,,,,,,,,,,,,,,,,,,,,,,,,,,,,,,,,,,,,,,,,,,157.13462210004218,157.15012020000722,157.64673749997746,0.512523700017482,158.23967100004666,,158.7129337999504,158.71287405996117,159.21673109999392,159.21673109999392,159.69615159998648,159.6960521600442,160.18972070002928,160.18972070002928,160.18972070002928,160.67932460003067,161.0823311000131,e,0.8796696000499651,None,None,0,,,,Ellie,001,2024-02-06_21h04.59.546,M2_experiment1,2023.2.3,60.00855722953251,2024-02-06 21h05.10.785483 +0100,
10,ModifiedT,resources/new_sounds_not_modified/M2fit.wav,0.423218058079414,resources/new_sounds_not_modified/M5fish.wav,0.451129071842058,resources/new_sounds_2/M4fit.wav,0.597210884353741,1,M,,,,,0,17,17,9,161.09881680004764,,,,,,,,,,,,,,,,,,,,,,,,,,,,,,,,,,,,,,,,,,,,,,,,,,,,,,,,,,,,,,,,,,,,,,,,,,,,161.08312139997724,161.09881680004764,161.59528240002692,0.5125535000115633,162.02845720003825,0.9457237999886274,162.51177380001172,162.5117895600153,162.97826720005833,162.97826720005833,163.4618741000304,163.46183895999565,164.0701195000438,164.0701195000438,164.0701195000438,164.5613778999541,165.1638845000416,e,1.08621320000384,None,None,0,,,,Ellie,001,2024-02-06_21h04.59.546,M2_experiment1,2023.2.3,60.00855722953251,2024-02-06 21h05.10.785483 +0100,
8,ModifiedSH,resources/new_sounds_not_modified/M3bot.wav,0.368685295497059,resources/new_sounds_not_modified/M1bosh.wav,0.5055628425466665,resources/new_sounds_2/M5bosh.wav,0.4857823129251701,2,M,,,,,0,18,18,7,165.18071730004158,,,,,,,,,,,,,,,,,,,,,,,,,,,,,,,,,,,,,,,,,,,,,,,,,,,,,,,,,,,,,,,,,,,,,,,,,,,,165.16475750005338,165.18071730004158,165.6773691000417,0.5130129000172019,166.07897639996372,,166.5439726000186,166.5439091600012,167.0655966999475,167.0655966999475,167.54349910002202,167.5435029600514,168.04648310004268,168.02652059996035,168.04648310004268,168.52662120002788,168.76447920000646,r,0.7278895999770612,None,None,0,,,,Ellie,001,2024-02-06_21h04.59.546,M2_experiment1,2023.2.3,60.00855722953251,2024-02-06 21h05.10.785483 +0100,
13,ModifiedT,resources/new_sounds_not_modified/F1fish.wav,0.519196656146427,resources/new_sounds_not_modified/F4fit.wav,0.297524783699501,resources/new_sounds_2/F2fit.wav,0.443741496598639,2,F,,,,,0,19,19,12,168.7802975999657,,,,,,,,,,,,,,,,,,,,,,,,,,,,,,,,,,,,,,,,,,,,,,,,,,,,,,,,,,,,,,,,,,,,,,,,,,,,168.76534729998093,168.7802975999657,169.27819700003602,0.5132686999859288,169.80931759998202,1.0443941000849009,170.29232420003973,170.29271635999902,170.59991790005006,170.59991790005006,171.09226850001141,171.0922296599485,171.5471432999475,171.52543140004855,171.5471432999475,172.02540359995328,173.2283229000168,e,1.6990967999445274,None,None,0,,,,Ellie,001,2024-02-06_21h04.59.546,M2_experiment1,2023.2.3,60.00855722953251,2024-02-06 21h05.10.785483 +0100,
14,ModifiedSH,resources/new_sounds_not_modified/F2bosh.wav,0.494392229081527,resources/new_sounds_not_modified/F5bot.wav,0.485673207115724,resources/new_sounds_2/F1bosh.wav,0.520634920634921,1,F,,,,,0,20,20,13,173.24503750004806,,,,,,,,,,,,,,,,,,,,,,,,,,,,,,,,,,,,,,,,,,,,,,,,,,,,,,,,,,,,,,,,,,,,,,,,,,,,173.2291795000201,173.24503750004806,173.74122830003034,0.5124637000262737,174.24116299999878,1.0124154000077397,174.72435649996623,174.72426525996997,175.22744609997608,175.22744609997608,175.72385089995805,175.72394445997196,176.26180029998068,176.24039229995105,176.26180029998068,176.7405476999702,177.1596871999791,e,0.9110863000387326,None,None,0,,,,Ellie,001,2024-02-06_21h04.59.546,M2_experiment1,2023.2.3,60.00855722953251,2024-02-06 21h05.10.785483 +0100,
12,ModifiedSH,resources/new_sounds_not_modified/F4bot.wav,0.390471530438234,resources/new_sounds_not_modified/F3bosh.wav,0.505513996768869,resources/new_sounds_2/F2bosh.wav,0.423673469387755,2,F,,,,,0,21,21,11,177.17687429999933,,,,,,,,,,,,,,,,,,,,,,,,,,,,,,,,,,,,,,,,,,,,,,,,,,,,,,,,,,,,,,,,,,,,,,,,,,,,177.1606019999599,177.17687429999933,177.67333170003258,0.5132252000039443,178.07328170002438,0.9131587001029402,178.55631629994605,178.55624916001688,179.07612119999249,179.07612119999249,179.55609249998815,179.55589285998138,179.9942224000115,179.9942224000115,179.9942224000115,180.48901050002314,180.82530499994755,r,0.8288847000803798,None,None,0,,,,Ellie,001,2024-02-06_21h04.59.546,M2_experiment1,2023.2.3,60.00855722953251,2024-02-06 21h05.10.785483 +0100,
,,,,,,,,,,,,,,,,,,,,,,,,,,,,,,,,,,,,,,,,,,,,,,,,,,,,,,,,,,,,,,,,,,,,,,,,,,,,,,,,,,,,,,,,,,,,,,,,,,,,,,,,,,,,,,,,,,,,180.82593060005456,180.8413939999882,183.83782729995437,,,,,,,,
