ItemNb,Condition,Sound1,DurationSound1,Sound2,DurationSound2,Sound3,DurationSound3,ExpectedKey,Condition2,trials_task3.thisRepN,trials_task3.thisTrialN,trials_task3.thisN,trials_task3.thisIndex,trials_task1.thisRepN,trials_task1.thisTrialN,trials_task1.thisN,trials_task1.thisIndex,thisRow.t,notes,Welcome.started,textWelcomeMessage.started,keyWelcome.started,Welcome.stopped,keyWelcome.keys,keyWelcome.rt,keyWelcome.duration,Welcome_2.started,textWelcome2.started,key_resp_5.started,Welcome_2.stopped,key_resp_5.keys,key_resp_5.rt,key_resp_5.duration,Welcome_3.started,textWelcome3.started,key_resp_6.started,Welcome_3.stopped,key_resp_6.keys,key_resp_6.rt,key_resp_6.duration,blank.started,blank1.started,blank1.stopped,blank.stopped,volume_explanation.started,text_volume.started,key_resp_8.started,volume_explanation.stopped,key_resp_8.keys,key_resp_8.rt,key_resp_8.duration,volume.started,text_2.started,key_resp_7.started,sound_testvolume.started,volume.stopped,key_resp_7.keys,key_resp_7.rt,key_resp_7.duration,explanation.started,text.started,key_info_oddity.started,explanation.stopped,key_info_oddity.keys,key_info_oddity.rt,key_info_oddity.duration,task3.started,key_replay3.started,text_recording1_3.started,sound1_3.started,key_resp_question3.started,text_recording1_3.stopped,text_questiontask3.started,task3.stopped,key_resp_question3.keys,key_resp_question3.rt,key_resp_question3.duration,key_replay3.keys,sound1_3.stopped,explanation_3.started,text_4.started,key_resp_3.started,explanation_3.stopped,key_resp_3.keys,key_resp_3.rt,key_resp_3.duration,explanation_1.started,text_explanation_1.started,key_resp.started,explanation_1.stopped,key_resp.keys,key_resp.rt,key_resp.duration,task1.started,key_replay1.started,text_recording1.started,sound1.started,text_recording1.stopped,sound1.stopped,text_recording2.started,sound2.started,text_recording2.stopped,sound2.stopped,text_recording3.started,sound3.started,sound3.stopped,key_resp_question1.started,text_recording3.stopped,text_question1.started,task1.stopped,key_resp_question1.keys,key_resp_question1.rt,key_resp_question1.duration,key_replay1.keys,replay_count,Bye.started,text_6.started,Bye.stopped,participant,session,date,expName,psychopyVersion,frameRate,expStart,
,,,,,,,,,,,,,,,,,,,,0.04788410011678934,0.06908970000222325,0.06908970000222325,41.22211780003272,space,41.14783659996465,None,,,,,,,,,,,,,,,,,,,,,,,,,,,,,,,,,,,,,,,,,,,,,,,,,,,,,,,,,,,,,,,,,,,,,,,,,,,,,,,,,,,,,,,,,,,,,Gabriel,001,2024-03-08_19h25.40.918,M2_experiment1,2023.2.3,60.054577624214375,2024-03-08 19h26.00.123898 +0100,
,,,,,,,,,,,,,,,,,,,,,,,,,,,41.22215609997511,41.23780920007266,41.23780920007266,56.15050600003451,space,14.909652299946174,None,,,,,,,,,,,,,,,,,,,,,,,,,,,,,,,,,,,,,,,,,,,,,,,,,,,,,,,,,,,,,,,,,,,,,,,,,,,,,,,,,,,,,,Gabriel,001,2024-03-08_19h25.40.918,M2_experiment1,2023.2.3,60.054577624214375,2024-03-08 19h26.00.123898 +0100,
,,,,,,,,,,,,,,,,,,,,,,,,,,,,,,,,,,56.150546400109306,56.16779879992828,56.16779879992828,69.24501499999315,space,13.072156599955633,None,,,,,,,,,,,,,,,,,,,,,,,,,,,,,,,,,,,,,,,,,,,,,,,,,,,,,,,,,,,,,,,,,,,,,,,,,,,,,,,Gabriel,001,2024-03-08_19h25.40.918,M2_experiment1,2023.2.3,60.054577624214375,2024-03-08 19h26.00.123898 +0100,
,,,,,,,,,,,,,,,,,,,,,,,,,,,,,,,,,,,,,,,,,69.24505100003444,69.26045159995556,70.26075670006685,70.24457319988869,70.24459089990705,70.26075670006685,70.26075670006685,77.9095219001174,space,7.641505599953234,None,,,,,,,,,,,,,,,,,,,,,,,,,,,,,,,,,,,,,,,,,,,,,,,,,,,,,,,,,,,,,,,,,,,,Gabriel,001,2024-03-08_19h25.40.918,M2_experiment1,2023.2.3,60.054577624214375,2024-03-08 19h26.00.123898 +0100,
,,,,,,,,,,,,,,,,,,,,,,,,,,,,,,,,,,,,,,,,,,,,,,,,,,,,77.90955900005065,77.9383203999605,78.92478969995864,78.92467073001899,96.4420765999239,space,17.509603100130334,None,,,,,,,,,,,,,,,,,,,,,,,,,,,,,,,,,,,,,,,,,,,,,,,,,,,,,,,,,,,,Gabriel,001,2024-03-08_19h25.40.918,M2_experiment1,2023.2.3,60.054577624214375,2024-03-08 19h26.00.123898 +0100,
,,,,,,,,,,,,,,,,,,,,,,,,,,,,,,,,,,,,,,,,,,,,,,,,,,,,,,,,,,,,96.4421558000613,96.45798170007765,96.45798170007765,116.0468679999467,space,19.58637739997357,None,,,,,,,,,,,,,,,,,,,,,,,,,,,,,,,,,,,,,,,,,,,,,,,,,,,,,Gabriel,001,2024-03-08_19h25.40.918,M2_experiment1,2023.2.3,60.054577624214375,2024-03-08 19h26.00.123898 +0100,
35,NotModifiedSH,resources/new_sounds_not_modified/M7mosh.wav,0.618134342110551,None,None,None,None,e,M,0,0,0,11,,,,,116.12721690000035,,,,,,,,,,,,,,,,,,,,,,,,,,,,,,,,,,,,,,,,,,,,,,,,,116.10887950006872,116.12721690000035,116.55021680006757,0.5034894999116659,117.16678670002148,117.19871599995531,117.68302310002036,121.13153659994714,e,3.9518797998316586,None,None,,,,,,,,,,,,,,,,,,,,,,,,,,,,,,,,,,,,,,,,,Gabriel,001,2024-03-08_19h25.40.918,M2_experiment1,2023.2.3,60.054577624214375,2024-03-08 19h26.00.123898 +0100,
40,ModifiedSH,resources/new_sounds_2/F5fresher.wav,0.567437641723356,None,None,None,None,r,F,0,1,1,16,,,,,121.15788730001077,,,,,,,,,,,,,,,,,,,,,,,,,,,,,,,,,,,,,,,,,,,,,,,,,121.13326280005276,121.15788730001077,121.6441212000791,0.51143529987894,122.21433490002528,122.21433490002528,122.71095460001379,123.31588319991715,e,1.0947098000906408,None,None,,,,,,,,,,,,,,,,,,,,,,,,,,,,,,,,,,,,,,,,,Gabriel,001,2024-03-08_19h25.40.918,M2_experiment1,2023.2.3,60.054577624214375,2024-03-08 19h26.00.123898 +0100,
37,ModifiedT,resources/new_sounds_2/F4lot.wav,0.449274376417234,None,None,None,None,r,F,0,2,2,13,,,,,123.34142689988948,,,,,,,,,,,,,,,,,,,,,,,,,,,,,,,,,,,,,,,,,,,,,,,,,123.31700740009546,123.34142689988948,123.8267685000319,0.5103120000567287,124.28067960008048,124.28067960008048,124.77873599994928,125.34873960004188,e,1.053351600188762,None,None,0.9650198000017554,,,,,,,,,,,,,,,,,,,,,,,,,,,,,,,,,,,,,,,,Gabriel,001,2024-03-08_19h25.40.918,M2_experiment1,2023.2.3,60.054577624214375,2024-03-08 19h26.00.123898 +0100,
29,NotModifiedT,resources/new_sounds_2/M4getting.wav,0.612123590008089,None,None,None,None,e,M,0,3,3,5,,,,,125.37779129995033,,,,,,,,,,,,,,,,,,,,,,,,,,,,,,,,,,,,,,,,,,,,,,,,,125.34998119994998,125.37779129995033,125.85950349993072,0.5101861997973174,126.47563949995674,126.47563949995674,126.97611960000359,127.53037009993568,e,1.0372952001634985,None,None,1.1268863999284804,,,,,,,,,,,,,,,,,,,,,,,,,,,,,,,,,,,,,,,,Gabriel,001,2024-03-08_19h25.40.918,M2_experiment1,2023.2.3,60.054577624214375,2024-03-08 19h26.00.123898 +0100,
34,ModifiedSH,resources/new_sounds_2/M7mosh.wav,0.486031746031746,None,None,None,None,r,M,0,4,4,10,,,,,127.56135770003311,,,,,,,,,,,,,,,,,,,,,,,,,,,,,,,,,,,,,,,,,,,,,,,,,127.53152190009132,127.56135770003311,128.04196830000728,0.5109871001914144,128.5253403999377,128.55465839989483,129.0252888998948,130.28037749999203,e,1.7379188002087176,None,None,,,,,,,,,,,,,,,,,,,,,,,,,,,,,,,,,,,,,,,,,Gabriel,001,2024-03-08_19h25.40.918,M2_experiment1,2023.2.3,60.054577624214375,2024-03-08 19h26.00.123898 +0100,
26,ModifiedSH,resources/new_sounds_2/F2fleshing.wav,0.620294784580499,None,None,None,None,r,F,0,5,5,2,,,,,130.30714779999107,,,,,,,,,,,,,,,,,,,,,,,,,,,,,,,,,,,,,,,,,,,,,,,,,130.2816900999751,130.30714779999107,130.7912634999957,0.5102723999880254,131.40764060011134,131.4239183999598,131.90780559997074,133.11001339997165,r,1.6955069000832736,None,None,1.1429757999721915,,,,,,,,,,,,,,,,,,,,,,,,,,,,,,,,,,,,,,,,Gabriel,001,2024-03-08_19h25.40.918,M2_experiment1,2023.2.3,60.054577624214375,2024-03-08 19h26.00.123898 +0100,
47,ModifiedT,resources/new_sounds_2/M6root.wav,0.557210884353742,None,None,None,None,r,M,0,6,6,23,,,,,133.1359035000205,,,,,,,,,,,,,,,,,,,,,,,,,,,,,,,,,,,,,,,,,,,,,,,,,133.11118000000715,133.1359035000205,133.62349430005997,0.5129030998796225,134.17329320008866,134.1897784001194,134.673616199987,134.81230150000192,e,0.6251888000406325,None,None,1.0791838997974992,,,,,,,,,,,,,,,,,,,,,,,,,,,,,,,,,,,,,,,,Gabriel,001,2024-03-08_19h25.40.918,M2_experiment1,2023.2.3,60.054577624214375,2024-03-08 19h26.00.123898 +0100,
36,NotModifiedT,resources/new_sounds_not_modified/F4lot.wav,0.386965569882676,None,None,None,None,e,F,0,7,7,12,,,,,134.83769230009057,,,,,,,,,,,,,,,,,,,,,,,,,,,,,,,,,,,,,,,,,,,,,,,,,134.81348660006188,134.83769230009057,135.32315049995668,0.5102764000184834,135.70622919988818,135.72261189995334,136.21698540006764,136.19135640002787,e,0.47310509998351336,None,None,0.9097317000851035,,,,,,,,,,,,,,,,,,,,,,,,,,,,,,,,,,,,,,,,Gabriel,001,2024-03-08_19h25.40.918,M2_experiment1,2023.2.3,60.054577624214375,2024-03-08 19h26.00.123898 +0100,
27,ModifiedSH,resources/new_sounds_2/M4flesh.wav,0.722767978649223,None,None,None,None,r,M,0,8,8,3,,,,,136.21698540006764,,,,,,,,,,,,,,,,,,,,,,,,,,,,,,,,,,,,,,,,,,,,,,,,,136.1924846000038,136.21698540006764,136.70583040011115,0.5139126998838037,137.42233359999955,137.43869900004938,137.923523100093,139.24481429997832,r,1.8087727001402527,None,None,,,,,,,,,,,,,,,,,,,,,,,,,,,,,,,,,,,,,,,,,Gabriel,001,2024-03-08_19h25.40.918,M2_experiment1,2023.2.3,60.054577624214375,2024-03-08 19h26.00.123898 +0100,
53,NotModifiedSH,resources/new_sounds_not_modified/M6fresher.wav,0.558439616650624,None,None,None,None,e,M,0,9,9,29,,,,,139.27475339989178,,,,,,,,,,,,,,,,,,,,,,,,,,,,,,,,,,,,,,,,,,,,,,,,,139.2474624000024,139.27475339989178,139.75544569990598,0.5091953000519425,140.3086111000739,140.34784530010074,,140.6738817000296,e,0.35080619994550943,None,None,,,,,,,,,,,,,,,,,,,,,,,,,,,,,,,,,,,,,,,,,Gabriel,001,2024-03-08_19h25.40.918,M2_experiment1,2023.2.3,60.054577624214375,2024-03-08 19h26.00.123898 +0100,
32,ModifiedT,resources/new_sounds_2/M2city.wav,0.658866213151928,None,None,None,None,r,M,0,10,10,8,,,,,140.7040262001101,,,,,,,,,,,,,,,,,,,,,,,,,,,,,,,,,,,,,,,,,,,,,,,,,140.67539329989813,140.7040262001101,141.18839689996094,0.5137545000761747,141.8398130000569,141.85645429999568,142.3397448998876,142.81092160008848,e,0.9629253000020981,None,None,1.1817995000164956,,,,,,,,,,,,,,,,,,,,,,,,,,,,,,,,,,,,,,,,Gabriel,001,2024-03-08_19h25.40.918,M2_experiment1,2023.2.3,60.054577624214375,2024-03-08 19h26.00.123898 +0100,
31,NotModifiedT,resources/new_sounds_not_modified/F3footer.wav,0.573733808005514,None,None,None,None,e,F,0,11,11,7,,,,,142.84101719991304,,,,,,,,,,,,,,,,,,,,,,,,,,,,,,,,,,,,,,,,,,,,,,,,,142.81272440007888,142.84101719991304,143.32134620007128,0.5095112000126392,143.90345260011964,143.90345260011964,144.38845880003646,145.2750975000672,e,1.3544454001821578,None,None,1.0923393999692053,,,,,,,,,,,,,,,,,,,,,,,,,,,,,,,,,,,,,,,,Gabriel,001,2024-03-08_19h25.40.918,M2_experiment1,2023.2.3,60.054577624214375,2024-03-08 19h26.00.123898 +0100,
25,ModifiedSH,resources/new_sounds_2/F1swoosh.wav,0.770486715748874,None,None,None,None,r,F,0,12,12,1,,,,,145.30485119996592,,,,,,,,,,,,,,,,,,,,,,,,,,,,,,,,,,,,,,,,,,,,,,,,,145.2767616000492,145.30485119996592,145.78693519998342,0.5110718999058008,146.56707570003346,146.58585090003908,147.05417670006864,147.22593749989755,r,0.6415154000278562,None,None,,,,,,,,,,,,,,,,,,,,,,,,,,,,,,,,,,,,,,,,,Gabriel,001,2024-03-08_19h25.40.918,M2_experiment1,2023.2.3,60.054577624214375,2024-03-08 19h26.00.123898 +0100,
38,ModifiedT,resources/new_sounds_2/M7butter.wav,0.44172335600907,None,None,None,None,r,M,0,13,13,14,,,,,147.25457999994978,,,,,,,,,,,,,,,,,,,,,,,,,,,,,,,,,,,,,,,,,,,,,,,,,147.22767510008998,147.25457999994978,147.7364179000724,0.5096865000668913,148.17099420004524,148.18768489989452,148.67023549997248,149.02486220002174,e,0.8430244999472052,None,None,0.9609471000730991,,,,,,,,,,,,,,,,,,,,,,,,,,,,,,,,,,,,,,,,Gabriel,001,2024-03-08_19h25.40.918,M2_experiment1,2023.2.3,60.054577624214375,2024-03-08 19h26.00.123898 +0100,
30,ModifiedT,resources/new_sounds_2/F3footer.wav,0.597777777777778,None,None,None,None,r,F,0,14,14,6,,,,,149.05547980009578,,,,,,,,,,,,,,,,,,,,,,,,,,,,,,,,,,,,,,,,,,,,,,,,,149.02741710003465,149.05547980009578,149.53545160009526,0.5092454999685287,150.13516930001788,150.13516930001788,150.63634039997123,151.2744940998964,e,1.1266930000856519,None,None,1.1096543001476675,,,,,,,,,,,,,,,,,,,,,,,,,,,,,,,,,,,,,,,,Gabriel,001,2024-03-08_19h25.40.918,M2_experiment1,2023.2.3,60.054577624214375,2024-03-08 19h26.00.123898 +0100,
43,NotModifiedT,resources/new_sounds_not_modified/F2feat.wav,0.644364234737267,None,None,None,None,e,F,0,15,15,19,,,,,151.30440769996494,,,,,,,,,,,,,,,,,,,,,,,,,,,,,,,,,,,,,,,,,,,,,,,,,151.27628919994459,151.30440769996494,151.78477560007013,0.5095318998210132,152.4197788001038,152.43659229995683,152.93580189999193,153.13802319997922,e,0.7070200999733061,None,None,1.161335099954158,,,,,,,,,,,,,,,,,,,,,,,,,,,,,,,,,,,,,,,,Gabriel,001,2024-03-08_19h25.40.918,M2_experiment1,2023.2.3,60.054577624214375,2024-03-08 19h26.00.123898 +0100,
33,ModifiedT,resources/new_sounds_2/M7fatter.wav,0.644739229024943,None,None,None,None,r,M,0,16,16,9,,,,,153.16817800002173,,,,,,,,,,,,,,,,,,,,,,,,,,,,,,,,,,,,,,,,,,,,,,,,,153.13945290003903,153.16817800002173,153.65007380000316,0.5112652000971138,154.29955650004558,154.29955650004558,154.79939049994573,154.90060910000466,e,0.5901677999645472,None,None,1.161115299910307,,,,,,,,,,,,,,,,,,,,,,,,,,,,,,,,,,,,,,,,Gabriel,001,2024-03-08_19h25.40.918,M2_experiment1,2023.2.3,60.054577624214375,2024-03-08 19h26.00.123898 +0100,
42,NotModifiedT,resources/new_sounds_not_modified/F4feat.wav,0.478604920503187,None,None,None,None,e,F,0,17,17,18,,,,,154.9192484000232,,,,,,,,,,,,,,,,,,,,,,,,,,,,,,,,,,,,,,,,,,,,,,,,,154.90129849989899,154.9192484000232,155.41690400009975,0.5160052001010627,155.88311629998498,155.89943820005283,156.3837985000573,156.83257340011187,r,0.9305946999229491,None,None,0.998530900105834,,,,,,,,,,,,,,,,,,,,,,,,,,,,,,,,,,,,,,,,Gabriel,001,2024-03-08_19h25.40.918,M2_experiment1,2023.2.3,60.054577624214375,2024-03-08 19h26.00.123898 +0100,
24,NotModifiedT,resources/new_sounds_not_modified/F1party.wav,0.63399526438517,None,None,None,None,e,F,0,18,18,0,,,,,156.860899399966,,,,,,,,,,,,,,,,,,,,,,,,,,,,,,,,,,,,,,,,,,,,,,,,,156.83414379996248,156.860899399966,157.34929909999482,0.5160226000007242,157.9818484999705,157.9818484999705,,158.23447820008732,e,0.24345330009236932,None,None,,,,,,,,,,,,,,,,,,,,,,,,,,,,,,,,,,,,,,,,,Gabriel,001,2024-03-08_19h25.40.918,M2_experiment1,2023.2.3,60.054577624214375,2024-03-08 19h26.00.123898 +0100,
41,ModifiedT,resources/new_sounds_2/F4utter.wav,0.53952380952381,None,None,None,None,r,F,0,19,19,17,,,,,158.26269609993324,,,,,,,,,,,,,,,,,,,,,,,,,,,,,,,,,,,,,,,,,,,,,,,,,158.235822299961,158.26269609993324,158.74884749995545,0.5136684000026435,159.28197450004518,159.31681360001676,,159.73395289992914,e,0.4408668000251055,None,None,,,,,,,,,,,,,,,,,,,,,,,,,,,,,,,,,,,,,,,,,Gabriel,001,2024-03-08_19h25.40.918,M2_experiment1,2023.2.3,60.054577624214375,2024-03-08 19h26.00.123898 +0100,
48,ModifiedT,resources/new_sounds_2/M3lottery.wav,0.649773242630385,None,None,None,None,r,M,0,20,20,24,,,,,159.75526289991103,,,,,,,,,,,,,,,,,,,,,,,,,,,,,,,,,,,,,,,,,,,,,,,,,159.7347760000266,159.75526289991103,160.24744819989428,0.5130780001636595,160.89730910002254,160.89730910002254,,161.14872410008684,e,0.24411890003830194,None,None,1.1633798000402749,,,,,,,,,,,,,,,,,,,,,,,,,,,,,,,,,,,,,,,,Gabriel,001,2024-03-08_19h25.40.918,M2_experiment1,2023.2.3,60.054577624214375,2024-03-08 19h26.00.123898 +0100,
28,ModifiedSH,resources/new_sounds_2/F3flushing.wav,0.687845804988662,None,None,None,None,r,F,0,21,21,4,,,,,161.17035800009035,,,,,,,,,,,,,,,,,,,,,,,,,,,,,,,,,,,,,,,,,,,,,,,,,161.14955940004438,161.17035800009035,161.66403259988874,0.51490189996548,162.34663800010458,162.36356489988975,162.84643679996952,163.13129650009796,e,0.7677665997762233,None,None,1.2144133001565933,,,,,,,,,,,,,,,,,,,,,,,,,,,,,,,,,,,,,,,,Gabriel,001,2024-03-08_19h25.40.918,M2_experiment1,2023.2.3,60.054577624214375,2024-03-08 19h26.00.123898 +0100,
46,NotModifiedT,resources/new_sounds_not_modified/M6pet.wav,0.506976177381986,None,None,None,None,e,M,0,22,22,22,,,,,163.15223910007626,,,,,,,,,,,,,,,,,,,,,,,,,,,,,,,,,,,,,,,,,,,,,,,,,163.1321169999428,163.15223910007626,163.6510830000043,0.4995043999515474,164.16945419996046,164.1949899001047,164.65033510001376,165.0931452999357,r,0.9098737998865545,None,None,,,,,,,,,,,,,,,,,,,,,,,,,,,,,,,,,,,,,,,,,Gabriel,001,2024-03-08_19h25.40.918,M2_experiment1,2023.2.3,60.054577624214375,2024-03-08 19h26.00.123898 +0100,
44,ModifiedSH,resources/new_sounds_2/F2thrasher.wav,0.510249433106576,None,None,None,None,r,F,0,23,23,20,,,,,165.1277886000462,,,,,,,,,,,,,,,,,,,,,,,,,,,,,,,,,,,,,,,,,,,,,,,,,165.0949317999184,165.1277886000462,165.59858489991166,0.5044954000040889,166.11213149991818,166.11213149991818,,166.54911140003242,e,0.4297891999594867,None,None,1.0183747000992298,,,,,,,,,,,,,,,,,,,,,,,,,,,,,,,,,,,,,,,,Gabriel,001,2024-03-08_19h25.40.918,M2_experiment1,2023.2.3,60.054577624214375,2024-03-08 19h26.00.123898 +0100,
51,NotModifiedSH,resources/new_sounds_not_modified/M4mosh.wav,0.573267020202984,None,None,None,None,e,M,0,24,24,27,,,,,166.58182829990983,,,,,,,,,,,,,,,,,,,,,,,,,,,,,,,,,,,,,,,,,,,,,,,,,166.55085560004227,166.58182829990983,167.06344299996272,0.5134734001476318,167.63037879997864,167.64735329989344,168.13094640010968,168.2487747000996,r,0.6107807999942452,None,None,1.0973750001285225,,,,,,,,,,,,,,,,,,,,,,,,,,,,,,,,,,,,,,,,Gabriel,001,2024-03-08_19h25.40.918,M2_experiment1,2023.2.3,60.054577624214375,2024-03-08 19h26.00.123898 +0100,
52,NotModifiedSH,resources/new_sounds_not_modified/M4swoosh.wav,0.736227123531279,None,None,None,None,e,M,0,25,25,28,,,,,168.28080700011924,,,,,,,,,,,,,,,,,,,,,,,,,,,,,,,,,,,,,,,,,,,,,,,,,168.25037900009193,168.28080700011924,168.76300580007955,0.5134021998383105,169.5254631000571,169.5254631000571,169.9930664000567,170.01345110009424,r,0.4702290000859648,None,None,,,,,,,,,,,,,,,,,,,,,,,,,,,,,,,,,,,,,,,,,Gabriel,001,2024-03-08_19h25.40.918,M2_experiment1,2023.2.3,60.054577624214375,2024-03-08 19h26.00.123898 +0100,
49,NotModifiedT,resources/new_sounds_not_modified/M2lot.wav,0.466575772426751,None,None,None,None,e,M,0,26,26,25,,,,,170.04394940007478,,,,,,,,,,,,,,,,,,,,,,,,,,,,,,,,,,,,,,,,,,,,,,,,,170.01503879996017,170.04394940007478,170.52667800011113,0.512412000214681,170.99323930009268,170.99323930009268,,171.3963778000325,e,0.3931718000676483,None,None,0.9797186001669616,,,,,,,,,,,,,,,,,,,,,,,,,,,,,,,,,,,,,,,,Gabriel,001,2024-03-08_19h25.40.918,M2_experiment1,2023.2.3,60.054577624214375,2024-03-08 19h26.00.123898 +0100,
50,NotModifiedSH,resources/new_sounds_not_modified/M3dish.wav,0.409302075267592,None,None,None,None,e,M,0,27,27,26,,,,,171.42782739992253,,,,,,,,,,,,,,,,,,,,,,,,,,,,,,,,,,,,,,,,,,,,,,,,,171.39801459992304,171.42782739992253,171.91131470003165,0.5140551999211311,172.3252934999764,172.35897439997643,,172.78499229997396,e,0.4542399998754263,None,None,0.9289010998327285,,,,,,,,,,,,,,,,,,,,,,,,,,,,,,,,,,,,,,,,Gabriel,001,2024-03-08_19h25.40.918,M2_experiment1,2023.2.3,60.054577624214375,2024-03-08 19h26.00.123898 +0100,
45,NotModifiedSH,resources/new_sounds_not_modified/F3mosh.wav,0.628649263052651,None,None,None,None,e,F,0,28,28,21,,,,,172.81907030008733,,,,,,,,,,,,,,,,,,,,,,,,,,,,,,,,,,,,,,,,,,,,,,,,,172.7880281000398,172.81907030008733,173.29496240010485,0.5081233000382781,173.92944060009904,173.92944060009904,174.42908239993267,174.53348480002023,e,0.5938049000687897,None,None,1.1434929000679404,,,,,,,,,,,,,,,,,,,,,,,,,,,,,,,,,,,,,,,,Gabriel,001,2024-03-08_19h25.40.918,M2_experiment1,2023.2.3,60.054577624214375,2024-03-08 19h26.00.123898 +0100,
39,ModifiedSH,resources/new_sounds_2/M7fresher.wav,0.497256235827664,None,None,None,None,r,M,0,29,29,15,,,,,174.5659958999604,,,,,,,,,,,,,,,,,,,,,,,,,,,,,,,,,,,,,,,,,,,,,,,,,174.53561919997446,174.5659958999604,175.04416889999993,0.5095624001696706,175.56875249999575,175.56875249999575,176.04537199996412,176.04869040008634,r,0.47640909999608994,None,None,1.0061928001232445,,,,,,,,,,,,,,,,,,,,,,,,,,,,,,,,,,,,,,,,Gabriel,001,2024-03-08_19h25.40.918,M2_experiment1,2023.2.3,60.054577624214375,2024-03-08 19h26.00.123898 +0100,
54,NotModifiedSH,resources/new_sounds_not_modified/F5thrasher.wav,0.585496600933162,None,None,None,None,e,F,0,30,30,30,,,,,176.0804600000847,,,,,,,,,,,,,,,,,,,,,,,,,,,,,,,,,,,,,,,,,,,,,,,,,176.05045260000043,176.0804600000847,176.56066139996983,0.5109814000315964,177.14543860009871,177.14543860009871,177.6452319000382,178.61427120002918,e,1.46126089990139,None,None,1.096529500093311,,,,,,,,,,,,,,,,,,,,,,,,,,,,,,,,,,,,,,,,Gabriel,001,2024-03-08_19h25.40.918,M2_experiment1,2023.2.3,60.054577624214375,2024-03-08 19h26.00.123898 +0100,
,,,,,,,,,,,,,,,,,,,,,,,,,,,,,,,,,,,,,,,,,,,,,,,,,,,,,,,,,,,,,,,,,,,,,,,,,,,,,,,,178.61577080003917,178.63253369997256,178.63253369997256,198.93612110009417,space,20.286414500093088,None,,,,,,,,,,,,,,,,,,,,,,,,,,,,,,,,,Gabriel,001,2024-03-08_19h25.40.918,M2_experiment1,2023.2.3,60.054577624214375,2024-03-08 19h26.00.123898 +0100,
,,,,,,,,,,,,,,,,,,,,,,,,,,,,,,,,,,,,,,,,,,,,,,,,,,,,,,,,,,,,,,,,,,,,,,,,,,,,,,,,,,,,,,,198.93619340006262,198.95338500011712,198.95338500011712,210.69771349988878,space,11.736998700071126,None,,,,,,,,,,,,,,,,,,,,,,,,,,Gabriel,001,2024-03-08_19h25.40.918,M2_experiment1,2023.2.3,60.054577624214375,2024-03-08 19h26.00.123898 +0100,
20,ModifiedSH,resources/new_sounds_2/F2push.wav,0.418027210884354,resources/new_sounds_not_modified/F4push.wav,0.436144678520506,resources/new_sounds_not_modified/F3put.wav,0.437781204290985,2,F,,,,,0,0,0,19,210.8653434999287,,,,,,,,,,,,,,,,,,,,,,,,,,,,,,,,,,,,,,,,,,,,,,,,,,,,,,,,,,,,,,,,,,,,,,,,,,,,210.77330089989118,210.8653434999287,211.20169309992343,0.5041234998498112,211.6311683000531,0.9335932999383658,212.13420400000177,212.1305752301123,212.58534110011533,212.58534110011533,213.06664470001124,213.06365533010103,213.52070509991609,213.52070509991609,213.54535089991987,213.999682799913,216.45411240006797,e,2.9140896999742836,None,None,0,,,,Gabriel,001,2024-03-08_19h25.40.918,M2_experiment1,2023.2.3,60.054577624214375,2024-03-08 19h26.00.123898 +0100,
22,ModifiedSH,resources/new_sounds_not_modified/F1mash.wav,0.601753675244161,resources/new_sounds_2/F3mash.wav,0.42437641723356,resources/new_sounds_not_modified/F4mat.wav,0.401181209050264,3,F,,,,,0,1,1,21,216.5301137000788,,,,,,,,,,,,,,,,,,,,,,,,,,,,,,,,,,,,,,,,,,,,,,,,,,,,,,,,,,,,,,,,,,,,,,,,,,,,216.45868639997207,216.5301137000788,216.96022949996404,0.5030187999363989,217.56038590008393,,218.0603275001049,218.06024392996915,218.50211069989018,218.50211069989018,218.99380540009588,218.99333892995492,219.4094052000437,219.39260950009339,219.4094052000437,219.89265520009212,220.52824010001495,r,1.1310055998619646,None,None,0,,,,Gabriel,001,2024-03-08_19h25.40.918,M2_experiment1,2023.2.3,60.054577624214375,2024-03-08 19h26.00.123898 +0100,
4,ModifiedT,resources/new_sounds_not_modified/M4mat.wav,0.4451593985921889,resources/new_sounds_2/M3mat.wav,0.494308390022676,resources/new_sounds_not_modified/M2mash.wav,0.7358947371573947,1,M,,,,,0,2,2,3,220.56117410003208,,,,,,,,,,,,,,,,,,,,,,,,,,,,,,,,,,,,,,,,,,,,,,,,,,,,,,,,,,,,,,,,,,,,,,,,,,,,220.5289626000449,220.56117410003208,221.0444901001174,0.5159322000108659,221.51343320007436,,221.97762220003642,221.97686942992732,222.48839449998923,222.48839449998923,222.97802660008892,222.97655132994987,223.72731229988858,223.72731229988858,223.74334100005217,224.21140330005437,224.347776300041,t,0.6107071998994797,None,None,0,,,,Gabriel,001,2024-03-08_19h25.40.918,M2_experiment1,2023.2.3,60.054577624214375,2024-03-08 19h26.00.123898 +0100,
6,ModifiedT,resources/new_sounds_not_modified/M1met.wav,0.532038259057699,resources/new_sounds_2/M3met.wav,0.558503401360544,resources/new_sounds_not_modified/M5mesh.wav,0.5032130872900709,1,M,,,,,0,3,3,5,224.4064478999935,,,,,,,,,,,,,,,,,,,,,,,,,,,,,,,,,,,,,,,,,,,,,,,,,,,,,,,,,,,,,,,,,,,,,,,,,,,,224.34915679995902,224.4064478999935,224.85983620001934,0.5113464000169188,225.4185536999721,1.043868500040844,225.8932167000603,225.89247402991168,226.46720810001716,226.46720810001716,226.94265910005197,226.9419034300372,227.46282740007155,227.46282740007155,227.46282740007155,227.94330799998716,229.3933019998949,e,1.9233866001013666,None,None,0,,,,Gabriel,001,2024-03-08_19h25.40.918,M2_experiment1,2023.2.3,60.054577624214375,2024-03-08 19h26.00.123898 +0100,
11,ModifiedSH,resources/new_sounds_not_modified/M1fish.wav,0.569506825661794,resources/new_sounds_2/M7fit.wav,0.485691609977324,resources/new_sounds_not_modified/M3fit.wav,0.479334255844424,3,M,,,,,0,4,4,10,229.45006159995683,,,,,,,,,,,,,,,,,,,,,,,,,,,,,,,,,,,,,,,,,,,,,,,,,,,,,,,,,,,,,,,,,,,,,,,,,,,,229.39473089994863,229.45006159995683,229.90502199996263,0.5109606999903917,230.5063503999263,,230.97157860011794,230.97234062990174,231.47318050009198,,231.95549530000426,231.95590992993675,232.457760799909,232.457760799909,232.457760799909,232.939977100119,234.98039339995012,t,2.510301999980584,None,None,0,,,,Gabriel,001,2024-03-08_19h25.40.918,M2_experiment1,2023.2.3,60.054577624214375,2024-03-08 19h26.00.123898 +0100,
19,ModifiedT,resources/new_sounds_2/F2put.wav,0.521360544217687,resources/new_sounds_not_modified/F4push.wav,0.436144678520506,resources/new_sounds_not_modified/F5put.wav,0.363522850118329,2,F,,,,,0,5,5,18,235.02536799991503,,,,,,,,,,,,,,,,,,,,,,,,,,,,,,,,,,,,,,,,,,,,,,,,,,,,,,,,,,,,,,,,,,,,,,,,,,,,234.982335699955,235.02536799991503,235.48700219998136,0.5055951999966055,236.02050279988907,1.0390938997734338,236.50449439999647,236.50468452996574,236.95607999991626,236.95607999991626,237.43857749993913,237.43806202989072,237.82159759989008,237.82159759989008,237.82159759989008,238.30711619998328,239.544173900038,e,1.7204305999912322,None,None,0,,,,Gabriel,001,2024-03-08_19h25.40.918,M2_experiment1,2023.2.3,60.054577624214375,2024-03-08 19h26.00.123898 +0100,
17,ModifiedT,resources/new_sounds_2/M2bosh.wav,0.387165532879819,resources/new_sounds_not_modified/M6bot.wav,0.501070841911371,resources/new_sounds_not_modified/M5bosh.wav,0.597358038485993,2,M,,,,,0,6,6,16,239.58523409999907,,,,,,,,,,,,,,,,,,,,,,,,,,,,,,,,,,,,,,,,,,,,,,,,,,,,,,,,,,,,,,,,,,,,,,,,,,,,239.54553689993918,239.58523409999907,240.05380790005438,0.5089757000096142,240.45410279999487,0.9093035000842065,240.9368463999126,240.93692092993297,241.4535701998975,241.4535701998975,241.93641859991476,241.93706653011031,242.5470296998974,242.5470296998974,242.5470296998974,243.04168480006047,244.3483579000458,t,1.792242299998179,None,None,0,,,,Gabriel,001,2024-03-08_19h25.40.918,M2_experiment1,2023.2.3,60.054577624214375,2024-03-08 19h26.00.123898 +0100,
16,ModifiedT,resources/new_sounds_2/M2fit.wav,0.646553287981859,resources/new_sounds_not_modified/M4fit.wav,0.508424667314028,resources/new_sounds_not_modified/M5fish.wav,0.451129071842058,2,M,,,,,0,7,7,15,244.42149109998718,,,,,,,,,,,,,,,,,,,,,,,,,,,,,,,,,,,,,,,,,,,,,,,,,,,,,,,,,,,,,,,,,,,,,,,,,,,,244.35025430005044,244.42149109998718,244.85129830008373,0.5019300999119878,245.51660259999335,1.1672527000773698,246.00311270006932,246.00137463002466,246.52201339998282,246.52201339998282,247.0180832000915,247.01796633005142,247.47737420001067,247.47737420001067,247.47737420001067,247.96881640003994,249.68489239993505,e,2.2032907002139837,None,None,0,,,,Gabriel,001,2024-03-08_19h25.40.918,M2_experiment1,2023.2.3,60.054577624214375,2024-03-08 19h26.00.123898 +0100,
3,ModifiedT,resources/new_sounds_2/F5mat.wav,0.565396825396825,resources/new_sounds_not_modified/F4mash.wav,0.38066522534541036,resources/new_sounds_not_modified/F2mat.wav,0.5007174554648515,3,F,,,,,0,8,8,2,249.73541680001654,,,,,,,,,,,,,,,,,,,,,,,,,,,,,,,,,,,,,,,,,,,,,,,,,,,,,,,,,,,,,,,,,,,,,,,,,,,,249.6860422999598,249.73541680001654,250.19901470001787,0.513529899995774,250.76511749997735,1.0796206998638809,251.26549799996428,251.26614863006398,251.6587749000173,251.6587749000173,252.13230790011585,252.13243652996607,252.64787849993445,252.64787849993445,252.64787849993445,253.13365420000628,254.20009650010616,r,1.549463100032881,None,None,0,,,,Gabriel,001,2024-03-08_19h25.40.918,M2_experiment1,2023.2.3,60.054577624214375,2024-03-08 19h26.00.123898 +0100,
13,ModifiedT,resources/new_sounds_not_modified/F1fish.wav,0.519196656146427,resources/new_sounds_not_modified/F4fit.wav,0.297524783699501,resources/new_sounds_2/F2fit.wav,0.443741496598639,2,F,,,,,0,9,9,12,254.24971630005166,,,,,,,,,,,,,,,,,,,,,,,,,,,,,,,,,,,,,,,,,,,,,,,,,,,,,,,,,,,,,,,,,,,,,,,,,,,,254.2012692000717,254.24971630005166,254.71595040010288,0.5152540998533368,255.26514829997905,1.064447999931872,255.7323086000979,255.73211403004825,256.045754800085,256.045754800085,256.5324868001044,256.5317596299574,256.9984824999701,256.97985129989684,256.9984824999701,257.4691725000739,257.9877269999124,t,0.9911779998801649,None,None,0,,,,Gabriel,001,2024-03-08_19h25.40.918,M2_experiment1,2023.2.3,60.054577624214375,2024-03-08 19h26.00.123898 +0100,
21,ModifiedSH,resources/new_sounds_not_modified/F5fish.wav,0.478583202882902,resources/new_sounds_2/F4fish.wav,0.366258503401361,resources/new_sounds_not_modified/F2fit.wav,0.374261916532497,3,F,,,,,0,10,10,20,258.0387887000106,,,,,,,,,,,,,,,,,,,,,,,,,,,,,,,,,,,,,,,,,,,,,,,,,,,,,,,,,,,,,,,,,,,,,,,,,,,,257.9893485000357,258.0387887000106,258.4983554999344,0.5098313998896629,258.97968619992025,0.9911564998328686,259.47836649999954,259.4786885299254,259.85488500003703,259.85488500003703,260.3446921000723,260.3447452299297,260.7412223001011,260.7111969999969,260.7412223001011,,261.1643807000946,t,0.4479878998827189,None,None,0,,,,Gabriel,001,2024-03-08_19h25.40.918,M2_experiment1,2023.2.3,60.054577624214375,2024-03-08 19h26.00.123898 +0100,
7,ModifiedSH,resources/new_sounds_2/M1bosh.wav,0.4574829931972789,resources/new_sounds_not_modified/M2bot.wav,0.415863975908209,resources/new_sounds_not_modified/M4bosh.wav,0.4533657452807347,3,M,,,,,0,11,11,6,261.21369650005363,,,,,,,,,,,,,,,,,,,,,,,,,,,,,,,,,,,,,,,,,,,,,,,,,,,,,,,,,,,,,,,,,,,,,,,,,,,,261.16553009999916,261.21369650005363,261.6776974000968,0.5128558999858797,262.14494920009747,0.9799812999553978,262.6273463999387,262.62744683003984,263.056342799915,263.056342799915,263.5435097999871,263.54419493000023,264.0114464000799,263.99347970006056,264.0114464000799,264.5286882999353,264.4795532000717,r,0.4707335999701172,None,None,0,,,,Gabriel,001,2024-03-08_19h25.40.918,M2_experiment1,2023.2.3,60.054577624214375,2024-03-08 19h26.00.123898 +0100,
2,ModifiedSh,resources/new_sounds_not_modified/F2fish.wav,0.528250066930233,resources/new_sounds_2/F1fit.wav,0.423218058079413,resources/new_sounds_not_modified/F5fit.wav,0.2975247836995,3,F,,,,,0,12,12,1,264.5286882999353,,,,,,,,,,,,,,,,,,,,,,,,,,,,,,,,,,,,,,,,,,,,,,,,,,,,,,,,,,,,,,,,,,,,,,,,,,,,264.48072679992765,264.5286882999353,264.9930577999912,0.5128863998688757,265.52683129999787,1.0466566998511553,266.0093531999737,266.01008872990496,266.45611339993775,266.45611339993775,266.94311810005456,266.943103329977,267.2560974000953,267.2560974000953,267.2560974000953,267.74270640010945,268.52885119989514,e,1.2659685998223722,None,None,0,,,,Gabriel,001,2024-03-08_19h25.40.918,M2_experiment1,2023.2.3,60.054577624214375,2024-03-08 19h26.00.123898 +0100,
18,ModifiedT,resources/new_sounds_2/M2put.wav,0.532199546485261,resources/new_sounds_not_modified/M7put.wav,0.410382098763918,resources/new_sounds_not_modified/M5push.wav,0.499025816019625,2,M,,,,,0,13,13,17,268.577628799947,,,,,,,,,,,,,,,,,,,,,,,,,,,,,,,,,,,,,,,,,,,,,,,,,,,,,,,,,,,,,,,,,,,,,,,,,,,,268.5300318999216,268.577628799947,269.0428820999805,0.5134345998521894,269.57703489996493,1.0476044998504221,270.0775683999527,270.077308929991,270.49976989999413,270.49976989999413,270.97739699995145,270.9773576299194,271.48811289994046,271.48811289994046,271.48811289994046,271.9775294000283,272.1489434998948,e,0.6524964000564069,None,None,0,,,,Gabriel,001,2024-03-08_19h25.40.918,M2_experiment1,2023.2.3,60.054577624214375,2024-03-08 19h26.00.123898 +0100,
14,ModifiedSH,resources/new_sounds_not_modified/F2bosh.wav,0.494392229081527,resources/new_sounds_not_modified/F5bot.wav,0.485673207115724,resources/new_sounds_2/F1bosh.wav,0.520634920634921,1,F,,,,,0,14,14,13,272.2091852000449,,,,,,,,,,,,,,,,,,,,,,,,,,,,,,,,,,,,,,,,,,,,,,,,,,,,,,,,,,,,,,,,,,,,,,,,,,,,272.1501358000096,272.2091852000449,272.6593297000509,0.5097405000124127,273.1592401000671,1.0096499000210315,273.66066429996863,273.65952232992277,274.16493139998056,274.16493139998056,274.6572769000195,274.6437588299159,275.179529099958,275.1612821999006,275.179529099958,275.6612927999813,275.8434677000623,e,0.6700599000323564,None,None,0,,,,Gabriel,001,2024-03-08_19h25.40.918,M2_experiment1,2023.2.3,60.054577624214375,2024-03-08 19h26.00.123898 +0100,
10,ModifiedT,resources/new_sounds_not_modified/M2fit.wav,0.423218058079414,resources/new_sounds_not_modified/M5fish.wav,0.451129071842058,resources/new_sounds_2/M4fit.wav,0.597210884353741,1,M,,,,,0,15,15,9,275.89042249997146,,,,,,,,,,,,,,,,,,,,,,,,,,,,,,,,,,,,,,,,,,,,,,,,,,,,,,,,,,,,,,,,,,,,,,,,,,,,275.84494260000065,275.89042249997146,276.3596131999511,0.5153711999300867,276.7920576999895,0.9478184999898076,277.2768590000924,277.27506533009,277.741097799968,277.741097799968,278.22404160001315,278.22451473004185,278.83489489997737,278.83489489997737,278.83489489997737,279.3263628000859,279.66360400011763,r,0.8202611000742763,None,None,0,,,,Gabriel,001,2024-03-08_19h25.40.918,M2_experiment1,2023.2.3,60.054577624214375,2024-03-08 19h26.00.123898 +0100,
12,ModifiedSH,resources/new_sounds_not_modified/F4bot.wav,0.390471530438234,resources/new_sounds_not_modified/F3bosh.wav,0.505513996768869,resources/new_sounds_2/F2bosh.wav,0.423673469387755,2,F,,,,,0,16,16,11,279.7076801999938,,,,,,,,,,,,,,,,,,,,,,,,,,,,,,,,,,,,,,,,,,,,,,,,,,,,,,,,,,,,,,,,,,,,,,,,,,,,279.6646493000444,279.7076801999938,280.17345730005763,0.5092907999642193,280.5736364000477,0.909486599965021,281.05791339999996,281.0574029299896,281.57742629991844,281.57742629991844,282.0728168000933,282.0732818299439,282.511409800034,282.48934040009044,282.511409800034,282.9895798000507,283.42918880004436,e,0.9221117999404669,None,None,0,,,,Gabriel,001,2024-03-08_19h25.40.918,M2_experiment1,2023.2.3,60.054577624214375,2024-03-08 19h26.00.123898 +0100,
8,ModifiedSH,resources/new_sounds_not_modified/M3bot.wav,0.368685295497059,resources/new_sounds_not_modified/M1bosh.wav,0.5055628425466665,resources/new_sounds_2/M5bosh.wav,0.4857823129251701,2,M,,,,,0,17,17,7,283.4753459999338,,,,,,,,,,,,,,,,,,,,,,,,,,,,,,,,,,,,,,,,,,,,,,,,,,,,,,,,,,,,,,,,,,,,,,,,,,,,283.430251999991,283.4753459999338,283.9387779000681,0.5090113000478595,284.3364947999362,,284.80518930009566,284.80553692998365,285.33331390004605,285.33331390004605,285.80484830006026,285.80527582997456,286.31217589997686,286.31217589997686,286.31217589997686,,286.72368069994263,e,0.3949619000777602,None,None,0,,,,Gabriel,001,2024-03-08_19h25.40.918,M2_experiment1,2023.2.3,60.054577624214375,2024-03-08 19h26.00.123898 +0100,
1,ModifiedT,resources/new_sounds_not_modified/F2fit.wav,0.374261916532496,resources/new_sounds_not_modified/F5fish.wav,0.478583202882902,resources/new_sounds_2/F4fit.wav,0.41736473916697,1,F,,,,,0,18,18,0,286.74867699993774,,,,,,,,,,,,,,,,,,,,,,,,,,,,,,,,,,,,,,,,,,,,,,,,,,,,,,,,,,,,,,,,,,,,,,,,,,,,286.72465920005925,286.74867699993774,287.23771789995953,0.5135250000748783,287.62134260009043,0.8971448000520468,288.10520730004646,288.10452132998034,288.5965209999122,288.5965209999122,289.08845999999903,289.08755072997883,,289.5207551999483,289.5207551999483,290.00581580004655,290.2448976000305,e,0.7159482000861317,None,None,0,,,,Gabriel,001,2024-03-08_19h25.40.918,M2_experiment1,2023.2.3,60.054577624214375,2024-03-08 19h26.00.123898 +0100,
5,ModifiedT,resources/new_sounds_not_modified/F4met.wav,0.44494520825283956,resources/new_sounds_2/F2met.wav,0.634104308390023,resources/new_sounds_not_modified/F1mesh.wav,0.5571319490698841,1,F,,,,,0,19,19,4,290.3019558999222,,,,,,,,,,,,,,,,,,,,,,,,,,,,,,,,,,,,,,,,,,,,,,,,,,,,,,,,,,,,,,,,,,,,,,,,,,,,290.2466416999232,290.3019558999222,290.75425440003164,0.5083488998934627,291.2051377000753,0.9592307999264449,291.70409850007854,291.7033027301077,292.37008440005593,292.35078960005194,292.83725679991767,292.83654713002034,293.41433380008675,293.3857565999497,293.41433380008675,293.8854402001016,294.63654610002413,r,1.2350077000446618,None,None,0,,,,Gabriel,001,2024-03-08_19h25.40.918,M2_experiment1,2023.2.3,60.054577624214375,2024-03-08 19h26.00.123898 +0100,
15,ModifiedSH,resources/new_sounds_not_modified/M2fish.wav,0.602031419699607,resources/new_sounds_not_modified/M5fit.wav,0.593107043618346,resources/new_sounds_2/M1fish.wav,0.512562358276644,1,M,,,,,0,20,20,14,294.6700321000535,,,,,,,,,,,,,,,,,,,,,,,,,,,,,,,,,,,,,,,,,,,,,,,,,,,,,,,,,,,,,,,,,,,,,,,,,,,,294.63725959998555,294.6700321000535,295.15320309996605,0.5163398999720812,295.75405739992857,1.132406200049445,296.2534676999785,296.2519815301057,296.8648938999977,296.8648938999977,297.3363632999826,297.33484153007157,297.86848359997384,297.86848359997384,297.86848359997384,298.3512792000547,298.5568880001083,r,0.6707876001019031,None,None,0,,,,Gabriel,001,2024-03-08_19h25.40.918,M2_experiment1,2023.2.3,60.054577624214375,2024-03-08 19h26.00.123898 +0100,
9,ModifiedSH,resources/new_sounds_not_modified/M4bot.wav,0.453615769026229,resources/new_sounds_not_modified/M3bosh.wav,0.524217377306996,resources/new_sounds_2/M2bosh.wav,0.387165532879819,2,M,,,,,0,21,21,8,298.5902513000183,,,,,,,,,,,,,,,,,,,,,,,,,,,,,,,,,,,,,,,,,,,,,,,,,,,,,,,,,,,,,,,,,,,,,,,,,,,,298.55778770009056,298.5902513000183,299.0673205999192,0.5099653999786824,299.5338322999887,0.9764762001577765,300.01705310004763,300.0164853299502,300.5539226999972,300.5539226999972,301.0515095998999,301.0500225299038,301.4555403001141,301.43314290000126,301.4555403001141,301.9332206000108,302.3020778000355,e,0.8507312999572605,None,None,0,,,,Gabriel,001,2024-03-08_19h25.40.918,M2_experiment1,2023.2.3,60.054577624214375,2024-03-08 19h26.00.123898 +0100,
,,,,,,,,,,,,,,,,,,,,,,,,,,,,,,,,,,,,,,,,,,,,,,,,,,,,,,,,,,,,,,,,,,,,,,,,,,,,,,,,,,,,,,,,,,,,,,,,,,,,,,,,,,,,,,,,,,,,302.3027180999052,302.3182761000935,305.3152133000549,,,,,,,,
