ItemNb,Condition,Sound1,DurationSound1,Sound2,DurationSound2,Sound3,DurationSound3,ExpectedKey,Condition2,trials_task3.thisRepN,trials_task3.thisTrialN,trials_task3.thisN,trials_task3.thisIndex,trials_task1.thisRepN,trials_task1.thisTrialN,trials_task1.thisN,trials_task1.thisIndex,thisRow.t,notes,Welcome.started,textWelcomeMessage.started,keyWelcome.started,Welcome.stopped,keyWelcome.keys,keyWelcome.rt,keyWelcome.duration,Welcome_2.started,textWelcome2.started,key_resp_5.started,Welcome_2.stopped,key_resp_5.keys,key_resp_5.rt,key_resp_5.duration,Welcome_3.started,textWelcome3.started,key_resp_6.started,Welcome_3.stopped,key_resp_6.keys,key_resp_6.rt,key_resp_6.duration,blank.started,blank1.started,blank1.stopped,blank.stopped,volume_explanation.started,text_volume.started,key_resp_8.started,volume_explanation.stopped,key_resp_8.keys,key_resp_8.rt,key_resp_8.duration,volume.started,text_2.started,key_resp_7.started,sound_testvolume.started,volume.stopped,key_resp_7.keys,key_resp_7.rt,key_resp_7.duration,explanation.started,text.started,key_info_oddity.started,explanation.stopped,key_info_oddity.keys,key_info_oddity.rt,key_info_oddity.duration,task3.started,key_replay3.started,text_recording1_3.started,sound1_3.started,key_resp_question3.started,text_recording1_3.stopped,sound1_3.stopped,text_questiontask3.started,task3.stopped,key_resp_question3.keys,key_resp_question3.rt,key_resp_question3.duration,key_replay3.keys,explanation_3.started,text_4.started,key_resp_3.started,explanation_3.stopped,key_resp_3.keys,key_resp_3.rt,key_resp_3.duration,explanation_1.started,text_explanation_1.started,key_resp.started,explanation_1.stopped,key_resp.keys,key_resp.rt,key_resp.duration,task1.started,key_replay1.started,text_recording1.started,sound1.started,text_recording1.stopped,text_recording2.started,sound2.started,text_recording2.stopped,sound2.stopped,text_recording3.started,sound3.started,key_resp_question1.started,text_recording3.stopped,sound3.stopped,text_question1.started,sound1.stopped,task1.stopped,key_resp_question1.keys,key_resp_question1.rt,key_resp_question1.duration,key_replay1.keys,key_replay1.rt,key_replay1.duration,replay_count,Bye.started,text_6.started,text_6.stopped,Bye.stopped,participant,session,date,expName,psychopyVersion,frameRate,expStart,
,,,,,,,,,,,,,,,,,,,,0.030817899969406426,0.06010869995225221,0.06010869995225221,2.158964000060223,space,2.0934567000949755,None,,,,,,,,,,,,,,,,,,,,,,,,,,,,,,,,,,,,,,,,,,,,,,,,,,,,,,,,,,,,,,,,,,,,,,,,,,,,,,,,,,,,,,,,,,,,,,,,Melanie2,001,2024-02-06_20h47.45.794,M2_experiment1,2023.2.3,59.82567997140698,2024-02-06 20h48.01.207890 +0100,
,,,,,,,,,,,,,,,,,,,,,,,,,,,2.1590007999911904,2.1747912999708205,2.1747912999708205,3.024304599966854,space,0.8429806000785902,None,,,,,,,,,,,,,,,,,,,,,,,,,,,,,,,,,,,,,,,,,,,,,,,,,,,,,,,,,,,,,,,,,,,,,,,,,,,,,,,,,,,,,,,,,Melanie2,001,2024-02-06_20h47.45.794,M2_experiment1,2023.2.3,59.82567997140698,2024-02-06 20h48.01.207890 +0100,
,,,,,,,,,,,,,,,,,,,,,,,,,,,,,,,,,,3.0243418000172824,3.0394266999792308,3.0394266999792308,4.190949499956332,space,1.1407837000442669,None,,,,,,,,,,,,,,,,,,,,,,,,,,,,,,,,,,,,,,,,,,,,,,,,,,,,,,,,,,,,,,,,,,,,,,,,,,,,,,,,,,Melanie2,001,2024-02-06_20h47.45.794,M2_experiment1,2023.2.3,59.82567997140698,2024-02-06 20h48.01.207890 +0100,
,,,,,,,,,,,,,,,,,,,,,,,,,,,,,,,,,,,,,,,,,4.190984699991532,4.206425599986687,5.205613199970685,5.189752300037071,5.189772599958815,5.205613199970685,5.205613199970685,6.140087199979462,space,0.9184662000043318,None,,,,,,,,,,,,,,,,,,,,,,,,,,,,,,,,,,,,,,,,,,,,,,,,,,,,,,,,,,,,,,,,,,,,,,,Melanie2,001,2024-02-06_20h47.45.794,M2_experiment1,2023.2.3,59.82567997140698,2024-02-06 20h48.01.207890 +0100,
,,,,,,,,,,,,,,,,,,,,,,,,,,,,,,,,,,,,,,,,,,,,,,,,,,,,6.14014200004749,6.166971900034696,7.155135500011966,7.155356520041823,9.957375300000422,space,2.790073200012557,None,,,,,,,,,,,,,,,,,,,,,,,,,,,,,,,,,,,,,,,,,,,,,,,,,,,,,,,,,,,,,,,Melanie2,001,2024-02-06_20h47.45.794,M2_experiment1,2023.2.3,59.82567997140698,2024-02-06 20h48.01.207890 +0100,
,,,,,,,,,,,,,,,,,,,,,,,,,,,,,,,,,,,,,,,,,,,,,,,,,,,,,,,,,,,,9.976736600045115,9.989497000002302,9.989497000002302,13.122796899988316,space,3.1195164000382647,None,,,,,,,,,,,,,,,,,,,,,,,,,,,,,,,,,,,,,,,,,,,,,,,,,,,,,,,,Melanie2,001,2024-02-06_20h47.45.794,M2_experiment1,2023.2.3,59.82567997140698,2024-02-06 20h48.01.207890 +0100,
30,ModifiedT,resources/new_sounds_2/F3footer.wav,0.597777777777778,None,None,None,None,r,F,0,0,0,6,,,,,13.167650299961679,,,,,,,,,,,,,,,,,,,,,,,,,,,,,,,,,,,,,,,,,,,,,,,,,13.15520799998194,13.167650299961679,13.623723000055179,0.501065899967216,14.221936000045389,14.247829500003718,1.100003800005652,14.73565609997604,24.452637600013986,r,10.214331700000912,None,None,,,,,,,,,,,,,,,,,,,,,,,,,,,,,,,,,,,,,,,,,,,Melanie2,001,2024-02-06_20h47.45.794,M2_experiment1,2023.2.3,59.82567997140698,2024-02-06 20h48.01.207890 +0100,
33,ModifiedT,resources/new_sounds_2/M7fatter.wav,0.644739229024943,None,None,None,None,r,M,0,1,1,9,,,,,24.468221500050277,,,,,,,,,,,,,,,,,,,,,,,,,,,,,,,,,,,,,,,,,,,,,,,,,24.453809799975716,24.468221500050277,24.969045900041237,0.5156928000506014,25.602214799961075,25.61880850000307,1.1654200999764726,26.103431300027296,27.857614499982446,e,2.2433595000766218,None,None,,,,,,,,,,,,,,,,,,,,,,,,,,,,,,,,,,,,,,,,,,,Melanie2,001,2024-02-06_20h47.45.794,M2_experiment1,2023.2.3,59.82567997140698,2024-02-06 20h48.01.207890 +0100,
43,NotModifiedT,resources/new_sounds_not_modified/F2feat.wav,0.644364234737267,None,None,None,None,e,F,0,2,2,19,,,,,27.874074600054882,,,,,,,,,,,,,,,,,,,,,,,,,,,,,,,,,,,,,,,,,,,,,,,,,27.859435299993493,27.874074600054882,28.367769100004807,0.509308599983342,29.016864000004716,29.016864000004716,1.1590649000136182,29.51834129996132,34.91602220002096,r,5.88855519995559,None,None,,,,,,,,,,,,,,,,,,,,,,,,,,,,,,,,,,,,,,,,,,,Melanie2,001,2024-02-06_20h47.45.794,M2_experiment1,2023.2.3,59.82567997140698,2024-02-06 20h48.01.207890 +0100,
52,NotModifiedSH,resources/new_sounds_not_modified/M4swoosh.wav,0.736227123531279,None,None,None,None,e,M,0,3,3,28,,,,,34.93252010003198,,,,,,,,,,,,,,,,,,,,,,,,,,,,,,,,,,,,,,,,,,,,,,,,,34.917459600022994,34.93252010003198,35.42954010004178,0.512770300032571,36.16307410004083,36.18003100005444,1.263270499999635,36.66453730000649,40.33753999997862,r,4.158918399945833,None,None,,,,,,,,,,,,,,,,,,,,,,,,,,,,,,,,,,,,,,,,,,,Melanie2,001,2024-02-06_20h47.45.794,M2_experiment1,2023.2.3,59.82567997140698,2024-02-06 20h48.01.207890 +0100,
51,NotModifiedSH,resources/new_sounds_not_modified/M4mosh.wav,0.573267020202984,None,None,None,None,e,M,0,4,4,27,,,,,40.35349889995996,,,,,,,,,,,,,,,,,,,,,,,,,,,,,,,,,,,,,,,,,,,,,,,,,40.339484600001015,40.35349889995996,40.84778059995733,0.5090333999833092,41.412101799971424,41.42871240002569,1.0899141000118107,41.912009199964814,46.928412599954754,r,5.499759100028314,None,None,,,,,,,,,,,,,,,,,,,,,,,,,,,,,,,,,,,,,,,,,,,Melanie2,001,2024-02-06_20h47.45.794,M2_experiment1,2023.2.3,59.82567997140698,2024-02-06 20h48.01.207890 +0100,
24,NotModifiedT,resources/new_sounds_not_modified/F1party.wav,0.63399526438517,None,None,None,None,e,F,0,5,5,0,,,,,46.94431359996088,,,,,,,,,,,,,,,,,,,,,,,,,,,,,,,,,,,,,,,,,,,,,,,,,46.929242599988356,46.94431359996088,47.44347850000486,0.5146268999669701,48.076467699953355,48.076467699953355,1.1643478999612853,48.57633770001121,55.892048500012606,r,7.80775130004622,None,None,,,,,,,,,,,,,,,,,,,,,,,,,,,,,,,,,,,,,,,,,,,Melanie2,001,2024-02-06_20h47.45.794,M2_experiment1,2023.2.3,59.82567997140698,2024-02-06 20h48.01.207890 +0100,
54,NotModifiedSH,resources/new_sounds_not_modified/F5thrasher.wav,0.585496600933162,None,None,None,None,e,F,0,6,6,30,,,,,55.90777839999646,,,,,,,,,,,,,,,,,,,,,,,,,,,,,,,,,,,,,,,,,,,,,,,,,55.892832400044426,55.90777839999646,56.409419400035404,0.517010800074786,56.98876029998064,57.00757010001689,1.1151826999848709,57.49353139998857,61.30770320002921,e,4.316281200037338,None,None,,,,,,,,,,,,,,,,,,,,,,,,,,,,,,,,,,,,,,,,,,,Melanie2,001,2024-02-06_20h47.45.794,M2_experiment1,2023.2.3,59.82567997140698,2024-02-06 20h48.01.207890 +0100,
29,NotModifiedT,resources/new_sounds_2/M4getting.wav,0.612123590008089,None,None,None,None,e,M,0,7,7,5,,,,,61.324370600050315,,,,,,,,,,,,,,,,,,,,,,,,,,,,,,,,,,,,,,,,,,,,,,,,,61.30864139995538,61.324370600050315,61.82202520000283,0.5138543000211939,62.42189670004882,62.43845719995443,1.130276000010781,62.921959699946456,66.44236300000921,r,4.004653100040741,None,None,,,,,,,,,,,,,,,,,,,,,,,,,,,,,,,,,,,,,,,,,,,Melanie2,001,2024-02-06_20h47.45.794,M2_experiment1,2023.2.3,59.82567997140698,2024-02-06 20h48.01.207890 +0100,
41,ModifiedT,resources/new_sounds_2/F4utter.wav,0.53952380952381,None,None,None,None,r,F,0,8,8,17,,,,,66.46774750004988,,,,,,,,,,,,,,,,,,,,,,,,,,,,,,,,,,,,,,,,,,,,,,,,,66.44359959999565,66.46774750004988,66.95557320001535,0.5126132000004873,67.48887110000942,67.50581889995374,1.0628199999919161,67.98678200005088,68.93693680001888,e,1.4357013000408188,None,None,,,,,,,,,,,,,,,,,,,,,,,,,,,,,,,,,,,,,,,,,,,Melanie2,001,2024-02-06_20h47.45.794,M2_experiment1,2023.2.3,59.82567997140698,2024-02-06 20h48.01.207890 +0100,
44,ModifiedSH,resources/new_sounds_2/F2thrasher.wav,0.510249433106576,None,None,None,None,r,F,0,9,9,20,,,,,68.95314869994763,,,,,,,,,,,,,,,,,,,,,,,,,,,,,,,,,,,,,,,,,,,,,,,,,68.9377868999727,68.95314869994763,69.43808870005887,0.5007448999676853,69.95432939997409,69.95432939997409,1.0177358000073582,70.45576729997993,71.24533299996983,e,1.2730986999813467,None,None,,,,,,,,,,,,,,,,,,,,,,,,,,,,,,,,,,,,,,,,,,,Melanie2,001,2024-02-06_20h47.45.794,M2_experiment1,2023.2.3,59.82567997140698,2024-02-06 20h48.01.207890 +0100,
47,ModifiedT,resources/new_sounds_2/M6root.wav,0.557210884353742,None,None,None,None,r,M,0,10,10,23,,,,,71.2614475999726,,,,,,,,,,,,,,,,,,,,,,,,,,,,,,,,,,,,,,,,,,,,,,,,,71.24710529996082,71.2614475999726,71.75399080000352,0.5077029999811202,72.31679479999002,72.35013389994856,1.0713070000056177,72.80523850000463,74.40117730002385,e,2.074380900012329,None,None,,,,,,,,,,,,,,,,,,,,,,,,,,,,,,,,,,,,,,,,,,,Melanie2,001,2024-02-06_20h47.45.794,M2_experiment1,2023.2.3,59.82567997140698,2024-02-06 20h48.01.207890 +0100,
53,NotModifiedSH,resources/new_sounds_not_modified/M6fresher.wav,0.558439616650624,None,None,None,None,e,M,0,11,11,29,,,,,74.41620069998316,,,,,,,,,,,,,,,,,,,,,,,,,,,,,,,,,,,,,,,,,,,,,,,,,74.4021875000326,74.41620069998316,74.91631899995264,0.5146211000392213,75.46669429994654,75.5050104999682,1.1033082000212744,75.96698689996265,77.38533049996477,e,1.9083527999464422,None,None,,,,,,,,,,,,,,,,,,,,,,,,,,,,,,,,,,,,,,,,,,,Melanie2,001,2024-02-06_20h47.45.794,M2_experiment1,2023.2.3,59.82567997140698,2024-02-06 20h48.01.207890 +0100,
38,ModifiedT,resources/new_sounds_2/M7butter.wav,0.44172335600907,None,None,None,None,r,M,0,12,12,14,,,,,77.4011077999603,,,,,,,,,,,,,,,,,,,,,,,,,,,,,,,,,,,,,,,,,,,,,,,,,77.38614550000057,77.4011077999603,77.90061360003892,0.5149564000312239,78.33324189996347,78.34987260005437,0.9642009999370202,78.83321870001964,80.58575450000353,e,2.236320100026205,None,None,,,,,,,,,,,,,,,,,,,,,,,,,,,,,,,,,,,,,,,,,,,Melanie2,001,2024-02-06_20h47.45.794,M2_experiment1,2023.2.3,59.82567997140698,2024-02-06 20h48.01.207890 +0100,
36,NotModifiedT,resources/new_sounds_not_modified/F4lot.wav,0.386965569882676,None,None,None,None,e,F,0,13,13,12,,,,,80.60214329999872,,,,,,,,,,,,,,,,,,,,,,,,,,,,,,,,,,,,,,,,,,,,,,,,,80.58675450005103,80.60214329999872,81.09884310001507,0.5125709999119863,81.4821145000169,81.5154576000059,,81.98204789997544,84.50104230002034,r,3.009320000070147,None,None,,,,,,,,,,,,,,,,,,,,,,,,,,,,,,,,,,,,,,,,,,,Melanie2,001,2024-02-06_20h47.45.794,M2_experiment1,2023.2.3,59.82567997140698,2024-02-06 20h48.01.207890 +0100,
42,NotModifiedT,resources/new_sounds_not_modified/F4feat.wav,0.478604920503187,None,None,None,None,e,F,0,14,14,18,,,,,84.51802099996712,,,,,,,,,,,,,,,,,,,,,,,,,,,,,,,,,,,,,,,,,,,,,,,,,84.5020591999637,84.51802099996712,85.01427180005703,0.512689600000158,85.48082860000432,85.49749650002923,0.9958996999775991,85.981004799949,89.14939110004343,r,3.6585251999786124,None,None,,,,,,,,,,,,,,,,,,,,,,,,,,,,,,,,,,,,,,,,,,,Melanie2,001,2024-02-06_20h47.45.794,M2_experiment1,2023.2.3,59.82567997140698,2024-02-06 20h48.01.207890 +0100,
32,ModifiedT,resources/new_sounds_2/M2city.wav,0.658866213151928,None,None,None,None,r,M,0,15,15,8,,,,,89.16631480003707,,,,,,,,,,,,,,,,,,,,,,,,,,,,,,,,,,,,,,,,,,,,,,,,,89.1504337999504,89.16631480003707,89.66273079998791,0.5128515000687912,90.31250839994755,90.32911759999115,1.1792071000672877,90.81333050003741,91.48069350002334,r,1.1491839999798685,None,None,,,,,,,,,,,,,,,,,,,,,,,,,,,,,,,,,,,,,,,,,,,Melanie2,001,2024-02-06_20h47.45.794,M2_experiment1,2023.2.3,59.82567997140698,2024-02-06 20h48.01.207890 +0100,
40,ModifiedSH,resources/new_sounds_2/F5fresher.wav,0.567437641723356,None,None,None,None,r,F,0,16,16,16,,,,,91.4968605999602,,,,,,,,,,,,,,,,,,,,,,,,,,,,,,,,,,,,,,,,,,,,,,,,,91.48168740002438,91.4968605999602,91.99577399995178,0.5146003999980167,92.56529169995338,92.58043540001381,,93.0618373999605,93.54446040000767,e,0.9773765000281855,None,None,,,,,,,,,,,,,,,,,,,,,,,,,,,,,,,,,,,,,,,,,,,Melanie2,001,2024-02-06_20h47.45.794,M2_experiment1,2023.2.3,59.82567997140698,2024-02-06 20h48.01.207890 +0100,
26,ModifiedSH,resources/new_sounds_2/F2fleshing.wav,0.620294784580499,None,None,None,None,r,F,0,17,17,2,,,,,93.56197190005332,,,,,,,,,,,,,,,,,,,,,,,,,,,,,,,,,,,,,,,,,,,,,,,,,93.5454770999495,93.56197190005332,94.0443492999766,0.49933909997344017,94.67739349999465,94.67739349999465,1.1328130000038072,95.17740990000311,98.39439250004943,e,3.713539500022307,None,None,,,,,,,,,,,,,,,,,,,,,,,,,,,,,,,,,,,,,,,,,,,Melanie2,001,2024-02-06_20h47.45.794,M2_experiment1,2023.2.3,59.82567997140698,2024-02-06 20h48.01.207890 +0100,
35,NotModifiedSH,resources/new_sounds_not_modified/M7mosh.wav,0.618134342110551,None,None,None,None,e,M,0,18,18,11,,,,,98.41009450005367,,,,,,,,,,,,,,,,,,,,,,,,,,,,,,,,,,,,,,,,,,,,,,,,,98.39516209997237,98.41009450005367,98.91100690001622,0.5162763999542221,99.51297939999495,99.52972590003628,1.1349676999961957,100.02789499994833,101.21198320004623,r,1.6900019999593496,None,None,,,,,,,,,,,,,,,,,,,,,,,,,,,,,,,,,,,,,,,,,,,Melanie2,001,2024-02-06_20h47.45.794,M2_experiment1,2023.2.3,59.82567997140698,2024-02-06 20h48.01.207890 +0100,
34,ModifiedSH,resources/new_sounds_2/M7mosh.wav,0.486031746031746,None,None,None,None,r,M,0,19,19,10,,,,,101.22923219995573,,,,,,,,,,,,,,,,,,,,,,,,,,,,,,,,,,,,,,,,,,,,,,,,,101.21339839999564,101.22923219995573,101.72509249998257,0.5123022000771016,102.20849490002729,102.22502300003543,1.012229699990712,102.7080870999489,104.5924975000089,r,2.3745279000140727,None,None,,,,,,,,,,,,,,,,,,,,,,,,,,,,,,,,,,,,,,,,,,,Melanie2,001,2024-02-06_20h47.45.794,M2_experiment1,2023.2.3,59.82567997140698,2024-02-06 20h48.01.207890 +0100,
28,ModifiedSH,resources/new_sounds_2/F3flushing.wav,0.687845804988662,None,None,None,None,r,F,0,20,20,4,,,,,104.60829340002965,,,,,,,,,,,,,,,,,,,,,,,,,,,,,,,,,,,,,,,,,,,,,,,,,104.59332810004707,104.60829340002965,105.10734049999155,0.5144054999109358,105.79046569997445,105.80714469996747,1.2142066999804229,106.29038869997021,107.20816829998512,e,1.404655099962838,None,None,,,,,,,,,,,,,,,,,,,,,,,,,,,,,,,,,,,,,,,,,,,Melanie2,001,2024-02-06_20h47.45.794,M2_experiment1,2023.2.3,59.82567997140698,2024-02-06 20h48.01.207890 +0100,
37,ModifiedT,resources/new_sounds_2/F4lot.wav,0.449274376417234,None,None,None,None,r,F,0,21,21,13,,,,,107.2240059999749,,,,,,,,,,,,,,,,,,,,,,,,,,,,,,,,,,,,,,,,,,,,,,,,,107.20901460002642,107.2240059999749,107.72309670003597,0.5144980000331998,108.17294810002204,108.17294810002204,0.9647948000347242,108.67274089995772,110.92364489997271,e,2.7366249000187963,None,None,,,,,,,,,,,,,,,,,,,,,,,,,,,,,,,,,,,,,,,,,,,Melanie2,001,2024-02-06_20h47.45.794,M2_experiment1,2023.2.3,59.82567997140698,2024-02-06 20h48.01.207890 +0100,
39,ModifiedSH,resources/new_sounds_2/M7fresher.wav,0.497256235827664,None,None,None,None,r,M,0,22,22,15,,,,,110.9394754000241,,,,,,,,,,,,,,,,,,,,,,,,,,,,,,,,,,,,,,,,,,,,,,,,,110.92447990004439,110.9394754000241,111.44145699997898,0.5174583999905735,111.9370744000189,111.97586929996032,1.051868199952878,112.42658209998626,113.01897079998162,e,1.0781877000117674,None,None,,,,,,,,,,,,,,,,,,,,,,,,,,,,,,,,,,,,,,,,,,,Melanie2,001,2024-02-06_20h47.45.794,M2_experiment1,2023.2.3,59.82567997140698,2024-02-06 20h48.01.207890 +0100,
46,NotModifiedT,resources/new_sounds_not_modified/M6pet.wav,0.506976177381986,None,None,None,None,e,M,0,23,23,22,,,,,113.0360098000383,,,,,,,,,,,,,,,,,,,,,,,,,,,,,,,,,,,,,,,,,,,,,,,,,113.02082189999055,113.0360098000383,113.52395439997781,0.5040710000321269,114.03875049995258,114.03875049995258,1.019715299946256,114.54233359999489,115.4075174999889,e,1.3596808000002056,None,None,,,,,,,,,,,,,,,,,,,,,,,,,,,,,,,,,,,,,,,,,,,Melanie2,001,2024-02-06_20h47.45.794,M2_experiment1,2023.2.3,59.82567997140698,2024-02-06 20h48.01.207890 +0100,
25,ModifiedSH,resources/new_sounds_2/F1swoosh.wav,0.770486715748874,None,None,None,None,r,F,0,24,24,1,,,,,115.43500749999657,,,,,,,,,,,,,,,,,,,,,,,,,,,,,,,,,,,,,,,,,,,,,,,,,115.4086030999897,115.43500749999657,115.92068250000011,0.5126254999777302,116.6870562999975,116.70451900002081,,117.1875149999978,119.27060499996878,e,2.5693307000910863,None,None,,,,,,,,,,,,,,,,,,,,,,,,,,,,,,,,,,,,,,,,,,,Melanie2,001,2024-02-06_20h47.45.794,M2_experiment1,2023.2.3,59.82567997140698,2024-02-06 20h48.01.207890 +0100,
48,ModifiedT,resources/new_sounds_2/M3lottery.wav,0.649773242630385,None,None,None,None,r,M,0,25,25,24,,,,,119.28635159996338,,,,,,,,,,,,,,,,,,,,,,,,,,,,,,,,,,,,,,,,,,,,,,,,,119.2713818999473,119.28635159996338,119.78740719996858,0.5164483999833465,120.43442049995065,120.47035890002735,,120.93778449995443,122.70220619998872,r,2.2483504000119865,None,None,,,,,,,,,,,,,,,,,,,,,,,,,,,,,,,,,,,,,,,,,,,Melanie2,001,2024-02-06_20h47.45.794,M2_experiment1,2023.2.3,59.82567997140698,2024-02-06 20h48.01.207890 +0100,
27,ModifiedSH,resources/new_sounds_2/M4flesh.wav,0.722767978649223,None,None,None,None,r,M,0,26,26,3,,,,,122.72124430001713,,,,,,,,,,,,,,,,,,,,,,,,,,,,,,,,,,,,,,,,,,,,,,,,,122.70365889999084,122.72124430001713,123.2194861000171,0.5165140000171959,123.93722319998778,123.95361830003094,,124.43660759995691,126.08777310000733,e,2.1373976999893785,None,None,,,,,,,,,,,,,,,,,,,,,,,,,,,,,,,,,,,,,,,,,,,Melanie2,001,2024-02-06_20h47.45.794,M2_experiment1,2023.2.3,59.82567997140698,2024-02-06 20h48.01.207890 +0100,
49,NotModifiedT,resources/new_sounds_not_modified/M2lot.wav,0.466575772426751,None,None,None,None,e,M,0,27,27,25,,,,,126.10390420001931,,,,,,,,,,,,,,,,,,,,,,,,,,,,,,,,,,,,,,,,,,,,,,,,,126.08923309994861,126.10390420001931,126.60024309996516,0.5117115000030026,127.06731299997773,127.06731299997773,0.9794761999510229,127.56884820002597,129.2012327000266,e,2.1189103999640793,None,None,,,,,,,,,,,,,,,,,,,,,,,,,,,,,,,,,,,,,,,,,,,Melanie2,001,2024-02-06_20h47.45.794,M2_experiment1,2023.2.3,59.82567997140698,2024-02-06 20h48.01.207890 +0100,
50,NotModifiedSH,resources/new_sounds_not_modified/M3dish.wav,0.409302075267592,None,None,None,None,e,M,0,28,28,26,,,,,129.21660859999247,,,,,,,,,,,,,,,,,,,,,,,,,,,,,,,,,,,,,,,,,,,,,,,,,129.20265999995172,129.21660859999247,129.71448910003528,0.5124925000127405,130.11459939996712,130.13137349998578,0.9293756000697613,130.6155178999761,131.10252149996813,e,0.9801642000675201,None,None,,,,,,,,,,,,,,,,,,,,,,,,,,,,,,,,,,,,,,,,,,,Melanie2,001,2024-02-06_20h47.45.794,M2_experiment1,2023.2.3,59.82567997140698,2024-02-06 20h48.01.207890 +0100,
45,NotModifiedSH,resources/new_sounds_not_modified/F3mosh.wav,0.628649263052651,None,None,None,None,e,F,0,29,29,21,,,,,131.1183844000334,,,,,,,,,,,,,,,,,,,,,,,,,,,,,,,,,,,,,,,,,,,,,,,,,131.10386969998945,131.1183844000334,131.61599940003362,0.5127688000211492,132.23571499995887,132.25270950002596,1.149481700034812,132.73359930003062,134.79739079996943,e,2.545469000004232,None,None,,,,,,,,,,,,,,,,,,,,,,,,,,,,,,,,,,,,,,,,,,,Melanie2,001,2024-02-06_20h47.45.794,M2_experiment1,2023.2.3,59.82567997140698,2024-02-06 20h48.01.207890 +0100,
31,NotModifiedT,resources/new_sounds_not_modified/F3footer.wav,0.573733808005514,None,None,None,None,e,F,0,30,30,7,,,,,134.81269050005358,,,,,,,,,,,,,,,,,,,,,,,,,,,,,,,,,,,,,,,,,,,,,,,,,134.7981648000423,134.81269050005358,135.31193480000366,0.5141385999741033,135.878707600059,135.89537409995683,1.0975761999143288,136.37864180002362,137.36425960005727,e,1.478793799993582,None,None,,,,,,,,,,,,,,,,,,,,,,,,,,,,,,,,,,,,,,,,,,,Melanie2,001,2024-02-06_20h47.45.794,M2_experiment1,2023.2.3,59.82567997140698,2024-02-06 20h48.01.207890 +0100,
,,,,,,,,,,,,,,,,,,,,,,,,,,,,,,,,,,,,,,,,,,,,,,,,,,,,,,,,,,,,,,,,,,,,,,,,,,,,,,,,137.36481309996452,137.38025379995815,137.38025379995815,146.211349899997,space,8.814309500041418,None,,,,,,,,,,,,,,,,,,,,,,,,,,,,,,,,,,,,Melanie2,001,2024-02-06_20h47.45.794,M2_experiment1,2023.2.3,59.82567997140698,2024-02-06 20h48.01.207890 +0100,
,,,,,,,,,,,,,,,,,,,,,,,,,,,,,,,,,,,,,,,,,,,,,,,,,,,,,,,,,,,,,,,,,,,,,,,,,,,,,,,,,,,,,,,146.21139479998965,146.22754450002685,146.22754450002685,154.2634848000016,space,8.031634800019674,None,,,,,,,,,,,,,,,,,,,,,,,,,,,,,Melanie2,001,2024-02-06_20h47.45.794,M2_experiment1,2023.2.3,59.82567997140698,2024-02-06 20h48.01.207890 +0100,
8,ModifiedSH,resources/new_sounds_not_modified/M3bot.wav,0.368685295497059,resources/new_sounds_not_modified/M1bosh.wav,0.5055628425466665,resources/new_sounds_2/M5bosh.wav,0.4857823129251701,2,M,,,,,0,0,0,7,154.3114964000415,,,,,,,,,,,,,,,,,,,,,,,,,,,,,,,,,,,,,,,,,,,,,,,,,,,,,,,,,,,,,,,,,,,,,,,,,,,,154.2953514000401,154.3114964000415,154.7781528000487,0.5148369000526145,155.178460599971,155.64332909998484,155.64086392004975,156.1742901999969,190.51549520005938,156.6428472000407,156.64055172000081,157.12631029996555,157.1458735000342,190.51549520005938,157.6274275999749,36.23298800003249,194.32560440001544,t,37.1877528000623,None,p,33.15356379991863,None,1,,,,,Melanie2,001,2024-02-06_20h47.45.794,M2_experiment1,2023.2.3,59.82567997140698,2024-02-06 20h48.01.207890 +0100,
14,ModifiedSH,resources/new_sounds_not_modified/F2bosh.wav,0.494392229081527,resources/new_sounds_not_modified/F5bot.wav,0.485673207115724,resources/new_sounds_2/F1bosh.wav,0.520634920634921,1,F,,,,,0,1,1,13,194.35089690005407,,,,,,,,,,,,,,,,,,,,,,,,,,,,,,,,,,,,,,,,,,,,,,,,,,,,,,,,,,,,,,,,,,,,,,,,,,,,194.3293929999927,194.35089690005407,194.84426889999304,0.5157995000481606,195.35805489995982,195.8272746000439,195.82598541998306,196.34508879994974,196.32953800004907,196.8103121999884,196.80898942002096,197.348685999983,197.348685999983,197.348685999983,197.8440157000441,1.0295892000431195,202.8590141000459,r,5.4960484999464825,None,None,,,0,,,,,Melanie2,001,2024-02-06_20h47.45.794,M2_experiment1,2023.2.3,59.82567997140698,2024-02-06 20h48.01.207890 +0100,
5,ModifiedT,resources/new_sounds_not_modified/F4met.wav,0.44494520825283956,resources/new_sounds_2/F2met.wav,0.634104308390023,resources/new_sounds_not_modified/F1mesh.wav,0.5571319490698841,1,F,,,,,0,2,2,4,202.875559899956,,,,,,,,,,,,,,,,,,,,,,,,,,,,,,,,,,,,,,,,,,,,,,,,,,,,,,,,,,,,,,,,,,,,,,,,,,,,202.859823100036,202.875559899956,203.3736854000017,0.5142452999716625,203.82403859996703,204.3098892000271,204.3079363200348,204.95908619998954,204.95908619998954,205.44517059996724,205.44107751997655,206.01763150002807,206.01763150002807,206.01763150002807,206.51096450001933,0.9645858999574557,208.95363430003636,t,2.9234169999836013,None,None,,,0,,,,,Melanie2,001,2024-02-06_20h47.45.794,M2_experiment1,2023.2.3,59.82567997140698,2024-02-06 20h48.01.207890 +0100,
17,ModifiedT,resources/new_sounds_2/M2bosh.wav,0.387165532879819,resources/new_sounds_not_modified/M6bot.wav,0.501070841911371,resources/new_sounds_not_modified/M5bosh.wav,0.597358038485993,2,M,,,,,0,3,3,16,208.97466299997177,,,,,,,,,,,,,,,,,,,,,,,,,,,,,,,,,,,,,,,,,,,,,,,,,,,,,,,,,,,,,,,,,,,,,,,,,,,,208.95525090000592,208.97466299997177,209.4579080999829,0.5034083999926224,209.87515660002828,210.35824289999437,210.35599942000118,210.8812468999531,210.8812468999531,211.3586820999626,211.35614801996854,211.9430823000148,211.9703006000491,211.9703006000491,212.44255250005517,0.9206470000790432,215.8870710999472,t,3.9362618000013754,None,None,,,0,,,,,Melanie2,001,2024-02-06_20h47.45.794,M2_experiment1,2023.2.3,59.82567997140698,2024-02-06 20h48.01.207890 +0100,
6,ModifiedT,resources/new_sounds_not_modified/M1met.wav,0.532038259057699,resources/new_sounds_2/M3met.wav,0.558503401360544,resources/new_sounds_not_modified/M5mesh.wav,0.5032130872900709,1,M,,,,,0,4,4,5,215.90757629997097,,,,,,,,,,,,,,,,,,,,,,,,,,,,,,,,,,,,,,,,,,,,,,,,,,,,,,,,,,,,,,,,,,,,,,,,,,,,215.8884969999781,215.90757629997097,216.3888782999711,0.5010908000404015,216.95170179998968,217.4222344000591,217.42023022002542,218.0035434999736,218.0035434999736,218.4889079000568,218.48655721994584,218.9904830000596,219.0133358000312,219.0133358000312,219.4899557000026,1.0333009000169113,221.771988100023,r,2.767132500070147,None,None,,,0,,,,,Melanie2,001,2024-02-06_20h47.45.794,M2_experiment1,2023.2.3,59.82567997140698,2024-02-06 20h48.01.207890 +0100,
22,ModifiedSH,resources/new_sounds_not_modified/F1mash.wav,0.601753675244161,resources/new_sounds_2/F3mash.wav,0.42437641723356,resources/new_sounds_not_modified/F4mat.wav,0.401181209050264,3,F,,,,,0,5,5,21,221.78896310005803,,,,,,,,,,,,,,,,,,,,,,,,,,,,,,,,,,,,,,,,,,,,,,,,,,,,,,,,,,,,,,,,,,,,,,,,,,,,221.77302980003878,221.78896310005803,222.28466280002613,0.5121213999809697,222.901161900023,223.38432750001084,223.38429511997384,223.8226566000376,223.8226566000376,224.30109940003604,224.3009745199932,224.71890009997878,224.71890009997878,224.71890009997878,225.20137310004793,1.1286143999313936,228.86836850002874,r,4.135341400047764,None,None,,,0,,,,,Melanie2,001,2024-02-06_20h47.45.794,M2_experiment1,2023.2.3,59.82567997140698,2024-02-06 20h48.01.207890 +0100,
10,ModifiedT,resources/new_sounds_not_modified/M2fit.wav,0.423218058079414,resources/new_sounds_not_modified/M5fish.wav,0.451129071842058,resources/new_sounds_2/M4fit.wav,0.597210884353741,1,M,,,,,0,6,6,9,228.8855940999929,,,,,,,,,,,,,,,,,,,,,,,,,,,,,,,,,,,,,,,,,,,,,,,,,,,,,,,,,,,,,,,,,,,,,,,,,,,,228.86916979996022,228.8855940999929,229.38531759998295,0.5166015001013875,229.81694369995967,230.29920909996144,230.29884911999108,230.76258440001402,230.76258440001402,231.24884899996687,231.24856541999617,231.85799219994806,231.85799219994806,231.85799219994806,232.34910570003558,0.948176100035198,234.4647149000084,t,2.603899799985811,None,None,,,0,,,,,Melanie2,001,2024-02-06_20h47.45.794,M2_experiment1,2023.2.3,59.82567997140698,2024-02-06 20h48.01.207890 +0100,
11,ModifiedSH,resources/new_sounds_not_modified/M1fish.wav,0.569506825661794,resources/new_sounds_2/M7fit.wav,0.485691609977324,resources/new_sounds_not_modified/M3fit.wav,0.479334255844424,3,M,,,,,0,7,7,10,234.4842407000251,,,,,,,,,,,,,,,,,,,,,,,,,,,,,,,,,,,,,,,,,,,,,,,,,,,,,,,,,,,,,,,,,,,,,,,,,,,,234.4658313000109,234.4842407000251,234.98155549995136,0.5162841000128537,235.5783894000342,236.04823650000617,236.04771441996564,236.5633737000171,,237.03009100002237,237.02975441999735,237.52882869995665,237.52882869995665,237.52882869995665,238.0143016000511,,240.50151570001617,t,2.9667210000334308,None,None,,,0,,,,,Melanie2,001,2024-02-06_20h47.45.794,M2_experiment1,2023.2.3,59.82567997140698,2024-02-06 20h48.01.207890 +0100,
15,ModifiedSH,resources/new_sounds_not_modified/M2fish.wav,0.602031419699607,resources/new_sounds_not_modified/M5fit.wav,0.593107043618346,resources/new_sounds_2/M1fish.wav,0.512562358276644,1,M,,,,,0,8,8,14,240.51974350004457,,,,,,,,,,,,,,,,,,,,,,,,,,,,,,,,,,,,,,,,,,,,,,,,,,,,,,,,,,,,,,,,,,,,,,,,,,,,240.50293920002878,240.51974350004457,241.01192089996766,0.5098368999315426,241.62826430005953,242.11194530001376,242.1115100200521,242.71758499997668,242.71758499997668,243.21155809995253,243.21114821995144,243.71196910005528,243.73920790001284,243.73920790001284,244.2120067999931,1.126150699914433,246.41983320005238,r,2.6884542000479996,None,None,,,0,,,,,Melanie2,001,2024-02-06_20h47.45.794,M2_experiment1,2023.2.3,59.82567997140698,2024-02-06 20h48.01.207890 +0100,
20,ModifiedSH,resources/new_sounds_2/F2push.wav,0.418027210884354,resources/new_sounds_not_modified/F4push.wav,0.436144678520506,resources/new_sounds_not_modified/F3put.wav,0.437781204290985,2,F,,,,,0,9,9,19,246.43731609999668,,,,,,,,,,,,,,,,,,,,,,,,,,,,,,,,,,,,,,,,,,,,,,,,,,,,,,,,,,,,,,,,,,,,,,,,,,,,246.42190740001388,246.43731609999668,246.92673479998484,0.5055671000154689,247.34305230004247,247.8435102000367,247.84289111995605,248.32479820004664,,248.77990580000915,248.77718001995237,249.23914139997214,249.23914139997214,249.23914139997214,249.71574789995793,,251.8977397000417,e,2.6514877000590786,None,None,,,0,,,,,Melanie2,001,2024-02-06_20h47.45.794,M2_experiment1,2023.2.3,59.82567997140698,2024-02-06 20h48.01.207890 +0100,
2,ModifiedSh,resources/new_sounds_not_modified/F2fish.wav,0.528250066930233,resources/new_sounds_2/F1fit.wav,0.423218058079413,resources/new_sounds_not_modified/F5fit.wav,0.2975247836995,3,F,,,,,0,10,10,1,251.92166790005285,,,,,,,,,,,,,,,,,,,,,,,,,,,,,,,,,,,,,,,,,,,,,,,,,,,,,,,,,,,,,,,,,,,,,,,,,,,,251.89985050004907,251.92166790005285,252.41254279995337,0.5136543000116944,252.9793071000604,253.44583009998314,253.44215752005113,253.90591299999505,253.88419550005347,254.36390650004614,254.359094719938,254.66926390002482,254.69024889997672,254.66926390002482,255.1568918999983,1.0431820000521839,257.5916482000612,e,2.920339999953285,None,None,,,0,,,,,Melanie2,001,2024-02-06_20h47.45.794,M2_experiment1,2023.2.3,59.82567997140698,2024-02-06 20h48.01.207890 +0100,
18,ModifiedT,resources/new_sounds_2/M2put.wav,0.532199546485261,resources/new_sounds_not_modified/M7put.wav,0.410382098763918,resources/new_sounds_not_modified/M5push.wav,0.499025816019625,2,M,,,,,0,11,11,17,257.60905690002255,,,,,,,,,,,,,,,,,,,,,,,,,,,,,,,,,,,,,,,,,,,,,,,,,,,,,,,,,,,,,,,,,,,,,,,,,,,,257.5924877000507,257.60905690002255,258.1059210000094,0.513829099945724,258.6388813999947,259.1387991999509,259.1388162199408,259.56836419994943,259.56836419994943,260.04378359997645,260.0413304200163,260.5590272999834,260.5590272999834,260.5590272999834,261.04386560001876,1.046789100044407,262.8967499999562,e,2.3217297999653965,None,None,,,0,,,,,Melanie2,001,2024-02-06_20h47.45.794,M2_experiment1,2023.2.3,59.82567997140698,2024-02-06 20h48.01.207890 +0100,
16,ModifiedT,resources/new_sounds_2/M2fit.wav,0.646553287981859,resources/new_sounds_not_modified/M4fit.wav,0.508424667314028,resources/new_sounds_not_modified/M5fish.wav,0.451129071842058,2,M,,,,,0,12,12,15,262.91827470005956,,,,,,,,,,,,,,,,,,,,,,,,,,,,,,,,,,,,,,,,,,,,,,,,,,,,,,,,,,,,,,,,,,,,,,,,,,,,262.8986051999964,262.91827470005956,263.40729330002796,0.509506499976851,264.0868159000529,264.5575795000186,264.5544502200326,265.1043706999626,,265.5568603000138,265.5541568200104,266.0223237000173,266.0223237000173,266.0223237000173,266.5089651000453,,269.6196724999463,r,3.5775218000635505,None,None,,,0,,,,,Melanie2,001,2024-02-06_20h47.45.794,M2_experiment1,2023.2.3,59.82567997140698,2024-02-06 20h48.01.207890 +0100,
7,ModifiedSH,resources/new_sounds_2/M1bosh.wav,0.4574829931972789,resources/new_sounds_not_modified/M2bot.wav,0.415863975908209,resources/new_sounds_not_modified/M4bosh.wav,0.4533657452807347,3,M,,,,,0,13,13,6,269.6389540999662,,,,,,,,,,,,,,,,,,,,,,,,,,,,,,,,,,,,,,,,,,,,,,,,,,,,,,,,,,,,,,,,,,,,,,,,,,,,269.6208851999836,269.6389540999662,270.13555310002994,0.5152162000304088,270.60207000002265,271.0854079000419,271.08506361995825,271.5150667000562,271.5150667000562,272.0019090999849,272.0015137199778,272.4512739999918,272.47318029997405,272.47318029997405,272.9519551000558,0.9817036000313237,276.55155840003863,r,4.089114199974574,None,None,,,0,,,,,Melanie2,001,2024-02-06_20h47.45.794,M2_experiment1,2023.2.3,59.82567997140698,2024-02-06 20h48.01.207890 +0100,
9,ModifiedSH,resources/new_sounds_not_modified/M4bot.wav,0.453615769026229,resources/new_sounds_not_modified/M3bosh.wav,0.524217377306996,resources/new_sounds_2/M2bosh.wav,0.387165532879819,2,M,,,,,0,14,14,8,276.56862140004523,,,,,,,,,,,,,,,,,,,,,,,,,,,,,,,,,,,,,,,,,,,,,,,,,,,,,,,,,,,,,,,,,,,,,,,,,,,,276.55233320000116,276.56862140004523,277.0685665999772,0.5167206999612972,277.56349670002237,278.0203695000382,278.01636632003357,278.56464009999763,278.56464009999763,279.0352025999455,279.0327258200385,279.43771049997304,279.43771049997304,279.43771049997304,279.93029639997985,0.9793331000255421,282.8861773000099,t,3.4441465999698266,None,None,,,0,,,,,Melanie2,001,2024-02-06_20h47.45.794,M2_experiment1,2023.2.3,59.82567997140698,2024-02-06 20h48.01.207890 +0100,
12,ModifiedSH,resources/new_sounds_not_modified/F4bot.wav,0.390471530438234,resources/new_sounds_not_modified/F3bosh.wav,0.505513996768869,resources/new_sounds_2/F2bosh.wav,0.423673469387755,2,F,,,,,0,15,15,11,282.90272400004324,,,,,,,,,,,,,,,,,,,,,,,,,,,,,,,,,,,,,,,,,,,,,,,,,,,,,,,,,,,,,,,,,,,,,,,,,,,,282.88716699997894,282.90272400004324,283.3974799000425,0.5107686999253929,283.79736960004084,284.28083669999614,284.28072462005076,284.8044342000503,284.8044342000503,285.29700350004714,285.296882520034,285.71352079999633,285.73332650004886,285.73332650004886,286.21387259999756,0.9106568000279367,289.13496569998097,e,3.406063799979165,None,None,,,0,,,,,Melanie2,001,2024-02-06_20h47.45.794,M2_experiment1,2023.2.3,59.82567997140698,2024-02-06 20h48.01.207890 +0100,
4,ModifiedT,resources/new_sounds_not_modified/M4mat.wav,0.4451593985921889,resources/new_sounds_2/M3mat.wav,0.494308390022676,resources/new_sounds_not_modified/M2mash.wav,0.7358947371573947,1,M,,,,,0,16,16,3,289.15192860004026,,,,,,,,,,,,,,,,,,,,,,,,,,,,,,,,,,,,,,,,,,,,,,,,,,,,,,,,,,,,,,,,,,,,,,,,,,,,289.13614610000513,289.15192860004026,289.6452835999662,0.5097690999973565,290.0951996999793,290.5952217000304,290.5951714199735,291.10264359996654,291.10264359996654,291.5781439000275,291.57814872004093,292.32750580005813,292.34475789999124,,292.81191459996626,0.9596702998969704,295.3292847999837,r,2.9834058000706136,None,None,,,0,,,,,Melanie2,001,2024-02-06_20h47.45.794,M2_experiment1,2023.2.3,59.82567997140698,2024-02-06 20h48.01.207890 +0100,
1,ModifiedT,resources/new_sounds_not_modified/F2fit.wav,0.374261916532496,resources/new_sounds_not_modified/F5fish.wav,0.478583202882902,resources/new_sounds_2/F4fit.wav,0.41736473916697,1,F,,,,,0,17,17,0,295.3464363999665,,,,,,,,,,,,,,,,,,,,,,,,,,,,,,,,,,,,,,,,,,,,,,,,,,,,,,,,,,,,,,,,,,,,,,,,,,,,295.3304184000008,295.3464363999665,295.84382800001185,0.5139388999668881,296.2427908000536,296.70975569996517,296.7097072200384,297.2069541000528,297.2069541000528,297.6927864999743,297.6925567199476,298.1089637000114,298.12571960000787,,298.6089397999458,,301.0266542000463,e,2.9076531999744475,None,None,,,0,,,,,Melanie2,001,2024-02-06_20h47.45.794,M2_experiment1,2023.2.3,59.82567997140698,2024-02-06 20h48.01.207890 +0100,
21,ModifiedSH,resources/new_sounds_not_modified/F5fish.wav,0.478583202882902,resources/new_sounds_2/F4fish.wav,0.366258503401361,resources/new_sounds_not_modified/F2fit.wav,0.374261916532497,3,F,,,,,0,18,18,20,301.04366019996814,,,,,,,,,,,,,,,,,,,,,,,,,,,,,,,,,,,,,,,,,,,,,,,,,,,,,,,,,,,,,,,,,,,,,,,,,,,,301.02743959997315,301.04366019996814,301.5410966000054,0.5140255000442266,302.02434290002566,302.5112119000405,302.5088763200445,302.89700919995084,302.89700919995084,303.37586679996457,303.37437531999313,303.74917009996716,303.76528030005284,303.76528030005284,304.25756659999024,0.9972748999716714,308.5097058999818,t,4.757654399960302,None,None,,,0,,,,,Melanie2,001,2024-02-06_20h47.45.794,M2_experiment1,2023.2.3,59.82567997140698,2024-02-06 20h48.01.207890 +0100,
19,ModifiedT,resources/new_sounds_2/F2put.wav,0.521360544217687,resources/new_sounds_not_modified/F4push.wav,0.436144678520506,resources/new_sounds_not_modified/F5put.wav,0.363522850118329,2,F,,,,,0,19,19,18,308.52651410002727,,,,,,,,,,,,,,,,,,,,,,,,,,,,,,,,,,,,,,,,,,,,,,,,,,,,,,,,,,,,,,,,,,,,,,,,,,,,308.5108455000445,308.52651410002727,309.02221229998395,0.5118370000272989,309.5552969999844,310.03872449998744,310.0386298199417,310.4946916999761,310.4946916999761,310.9715939000016,310.97161552002655,311.3491206000326,311.3491206000326,311.3491206000326,311.8392785000615,1.0449187000049278,316.69210500002373,e,5.334155300050043,None,None,,,0,,,,,Melanie2,001,2024-02-06_20h47.45.794,M2_experiment1,2023.2.3,59.82567997140698,2024-02-06 20h48.01.207890 +0100,
13,ModifiedT,resources/new_sounds_not_modified/F1fish.wav,0.519196656146427,resources/new_sounds_not_modified/F4fit.wav,0.297524783699501,resources/new_sounds_2/F2fit.wav,0.443741496598639,2,F,,,,,0,20,20,12,316.70836950000376,,,,,,,,,,,,,,,,,,,,,,,,,,,,,,,,,,,,,,,,,,,,,,,,,,,,,,,,,,,,,,,,,,,,,,,,,,,,316.6931070999708,316.70836950000376,317.20421490003355,0.5116248000413179,317.7358890000032,318.2191934000002,318.2190930200275,318.52850759995636,318.52850759995636,319.01912720000837,319.018908419949,319.47444440005347,319.47444440005347,319.47444440005347,319.9692608000478,1.043266799999401,326.1661641000537,t,6.673608100041747,None,None,,,0,,,,,Melanie2,001,2024-02-06_20h47.45.794,M2_experiment1,2023.2.3,59.82567997140698,2024-02-06 20h48.01.207890 +0100,
3,ModifiedT,resources/new_sounds_2/F5mat.wav,0.565396825396825,resources/new_sounds_not_modified/F4mash.wav,0.38066522534541036,resources/new_sounds_not_modified/F2mat.wav,0.5007174554648515,3,F,,,,,0,21,21,2,326.18524380004965,,,,,,,,,,,,,,,,,,,,,,,,,,,,,,,,,,,,,,,,,,,,,,,,,,,,,,,,,,,,,,,,,,,,,,,,,,,,326.1671438999474,326.18524380004965,326.66633339994587,0.4996542999288067,327.23270659998525,327.7330335000297,327.73260411999655,328.128180300002,328.128180300002,328.61693070002366,328.61559751997703,329.12983160000294,329.14875349996146,329.12983160000294,329.6158720999956,1.0660248999483883,331.783538699965,e,2.633897199993953,None,None,,,0,,,,,Melanie2,001,2024-02-06_20h47.45.794,M2_experiment1,2023.2.3,59.82567997140698,2024-02-06 20h48.01.207890 +0100,
,,,,,,,,,,,,,,,,,,,,,,,,,,,,,,,,,,,,,,,,,,,,,,,,,,,,,,,,,,,,,,,,,,,,,,,,,,,,,,,,,,,,,,,,,,,,,,,,,,,,,,,,,,,,,,,,,,,,,,331.7842363000382,331.800276700058,334.79879589995835,334.7845153999515,,,,,,,,
