ItemNb,Condition,Sound1,DurationSound1,Sound2,DurationSound2,Sound3,DurationSound3,ExpectedKey,Condition2,trials_task3.thisRepN,trials_task3.thisTrialN,trials_task3.thisN,trials_task3.thisIndex,trials_task1.thisRepN,trials_task1.thisTrialN,trials_task1.thisN,trials_task1.thisIndex,thisRow.t,notes,Welcome.started,textWelcomeMessage.started,keyWelcome.started,Welcome.stopped,keyWelcome.keys,keyWelcome.rt,keyWelcome.duration,Welcome_2.started,textWelcome2.started,key_resp_5.started,Welcome_2.stopped,key_resp_5.keys,key_resp_5.rt,key_resp_5.duration,Welcome_3.started,textWelcome3.started,key_resp_6.started,Welcome_3.stopped,key_resp_6.keys,key_resp_6.rt,key_resp_6.duration,blank.started,blank1.started,blank1.stopped,blank.stopped,volume_explanation.started,text_volume.started,key_resp_8.started,volume_explanation.stopped,key_resp_8.keys,key_resp_8.rt,key_resp_8.duration,volume.started,text_2.started,key_resp_7.started,sound_testvolume.started,volume.stopped,key_resp_7.keys,key_resp_7.rt,key_resp_7.duration,explanation.started,text.started,key_info_oddity.started,explanation.stopped,key_info_oddity.keys,key_info_oddity.rt,key_info_oddity.duration,task3.started,key_replay3.started,text_recording1_3.started,sound1_3.started,key_resp_question3.started,text_recording1_3.stopped,sound1_3.stopped,text_questiontask3.started,task3.stopped,key_resp_question3.keys,key_resp_question3.rt,key_resp_question3.duration,key_replay3.keys,explanation_3.started,text_4.started,key_resp_3.started,explanation_3.stopped,key_resp_3.keys,key_resp_3.rt,key_resp_3.duration,explanation_1.started,text_explanation_1.started,key_resp.started,explanation_1.stopped,key_resp.keys,key_resp.rt,key_resp.duration,task1.started,key_replay1.started,text_recording1.started,sound1.started,text_recording1.stopped,sound1.stopped,text_recording2.started,sound2.started,text_recording2.stopped,sound2.stopped,text_recording3.started,sound3.started,text_recording3.stopped,key_resp_question1.started,text_question1.started,task1.stopped,key_resp_question1.keys,key_resp_question1.rt,key_resp_question1.duration,key_replay1.keys,replay_count,sound3.stopped,key_replay1.rt,key_replay1.duration,Bye.started,text_6.started,Bye.stopped,participant,session,date,expName,psychopyVersion,frameRate,expStart,
,,,,,,,,,,,,,,,,,,,,0.034403600031509995,0.05235360004007816,0.05235360004007816,5.886138699948788,space,5.832683200016618,None,,,,,,,,,,,,,,,,,,,,,,,,,,,,,,,,,,,,,,,,,,,,,,,,,,,,,,,,,,,,,,,,,,,,,,,,,,,,,,,,,,,,,,,,,,,,,,,ninoshkka,001,2024-02-29_15h54.16.260,M2_experiment1,2023.2.3,60.07514200028877,2024-02-29 15h54.40.388407 +0100,
,,,,,,,,,,,,,,,,,,,,,,,,,,,5.886177100008354,5.901268500019796,5.901268500019796,6.785285099991597,space,0.8713803000282496,None,,,,,,,,,,,,,,,,,,,,,,,,,,,,,,,,,,,,,,,,,,,,,,,,,,,,,,,,,,,,,,,,,,,,,,,,,,,,,,,,,,,,,,,,ninoshkka,001,2024-02-29_15h54.16.260,M2_experiment1,2023.2.3,60.07514200028877,2024-02-29 15h54.40.388407 +0100,
,,,,,,,,,,,,,,,,,,,,,,,,,,,,,,,,,,6.785319200018421,6.800870800041594,6.800870800041594,20.14866459998302,space,13.335047699976712,None,,,,,,,,,,,,,,,,,,,,,,,,,,,,,,,,,,,,,,,,,,,,,,,,,,,,,,,,,,,,,,,,,,,,,,,,,,,,,,,,,ninoshkka,001,2024-02-29_15h54.16.260,M2_experiment1,2023.2.3,60.07514200028877,2024-02-29 15h54.40.388407 +0100,
,,,,,,,,,,,,,,,,,,,,,,,,,,,,,,,,,,,,,,,,,20.148704100050963,20.164199099992402,21.163977000047453,21.14818659995217,21.14820920000784,21.163977000047453,21.163977000047453,24.347868100041524,space,3.17765949992463,None,,,,,,,,,,,,,,,,,,,,,,,,,,,,,,,,,,,,,,,,,,,,,,,,,,,,,,,,,,,,,,,,,,,,,,ninoshkka,001,2024-02-29_15h54.16.260,M2_experiment1,2023.2.3,60.07514200028877,2024-02-29 15h54.40.388407 +0100,
,,,,,,,,,,,,,,,,,,,,,,,,,,,,,,,,,,,,,,,,,,,,,,,,,,,,24.347914700047113,24.38066849997267,25.36283750005532,25.362699999986216,38.2757200000342,space,12.898148700012825,None,,,,,,,,,,,,,,,,,,,,,,,,,,,,,,,,,,,,,,,,,,,,,,,,,,,,,,,,,,,,,,ninoshkka,001,2024-02-29_15h54.16.260,M2_experiment1,2023.2.3,60.07514200028877,2024-02-29 15h54.40.388407 +0100,
,,,,,,,,,,,,,,,,,,,,,,,,,,,,,,,,,,,,,,,,,,,,,,,,,,,,,,,,,,,,38.27579159999732,38.29165479994845,38.29165479994845,50.42517900001258,space,12.130240499973297,None,,,,,,,,,,,,,,,,,,,,,,,,,,,,,,,,,,,,,,,,,,,,,,,,,,,,,,,ninoshkka,001,2024-02-29_15h54.16.260,M2_experiment1,2023.2.3,60.07514200028877,2024-02-29 15h54.40.388407 +0100,
38,ModifiedT,resources/new_sounds_2/M7butter.wav,0.44172335600907,None,None,None,None,r,M,0,0,0,14,,,,,50.56343600002583,,,,,,,,,,,,,,,,,,,,,,,,,,,,,,,,,,,,,,,,,,,,,,,,,50.54093679995276,50.56343600002583,50.937885500025004,0.5128017999231815,51.37138549995143,51.38772150001023,0.9626624999800697,51.87220450001769,53.49445040000137,e,2.104745699907653,None,None,,,,,,,,,,,,,,,,,,,,,,,,,,,,,,,,,,,,,,,,,,ninoshkka,001,2024-02-29_15h54.16.260,M2_experiment1,2023.2.3,60.07514200028877,2024-02-29 15h54.40.388407 +0100,
36,NotModifiedT,resources/new_sounds_not_modified/F4lot.wav,0.386965569882676,None,None,None,None,e,F,0,1,1,12,,,,,53.528098699986,,,,,,,,,,,,,,,,,,,,,,,,,,,,,,,,,,,,,,,,,,,,,,,,,53.500052500050515,53.528098699986,54.00333209999371,0.5039829999441281,54.386857399949804,54.41998889995739,,54.88725040003192,56.30977569997776,r,1.9059525000629947,None,None,,,,,,,,,,,,,,,,,,,,,,,,,,,,,,,,,,,,,,,,,,ninoshkka,001,2024-02-29_15h54.16.260,M2_experiment1,2023.2.3,60.07514200028877,2024-02-29 15h54.40.388407 +0100,
30,ModifiedT,resources/new_sounds_2/F3footer.wav,0.597777777777778,None,None,None,None,r,F,0,2,2,6,,,,,56.341288800002076,,,,,,,,,,,,,,,,,,,,,,,,,,,,,,,,,,,,,,,,,,,,,,,,,56.31131270003971,56.341288800002076,56.81909660005476,0.5086203999817371,57.41916719998699,57.41916719998699,1.1093742999946699,57.91948559996672,58.60531480005011,r,1.170215699938126,None,None,,,,,,,,,,,,,,,,,,,,,,,,,,,,,,,,,,,,,,,,,,ninoshkka,001,2024-02-29_15h54.16.260,M2_experiment1,2023.2.3,60.07514200028877,2024-02-29 15h54.40.388407 +0100,
43,NotModifiedT,resources/new_sounds_not_modified/F2feat.wav,0.644364234737267,None,None,None,None,e,F,0,3,3,19,,,,,58.63725789997261,,,,,,,,,,,,,,,,,,,,,,,,,,,,,,,,,,,,,,,,,,,,,,,,,58.60670729994308,58.63725789997261,59.1184012000449,0.5123550000134856,59.751793800038286,59.7682547000004,1.162207799963653,60.2517798000481,60.538076799944974,e,0.7770079999463633,None,None,,,,,,,,,,,,,,,,,,,,,,,,,,,,,,,,,,,,,,,,,,ninoshkka,001,2024-02-29_15h54.16.260,M2_experiment1,2023.2.3,60.07514200028877,2024-02-29 15h54.40.388407 +0100,
50,NotModifiedSH,resources/new_sounds_not_modified/M3dish.wav,0.409302075267592,None,None,None,None,e,M,0,4,4,26,,,,,60.57071110000834,,,,,,,,,,,,,,,,,,,,,,,,,,,,,,,,,,,,,,,,,,,,,,,,,60.5395070000086,60.57071110000834,61.050995699944906,0.512181399972178,61.45116339996457,61.48986930004321,0.9510417999699712,61.950443299952894,62.284575299941935,e,0.8251900000032037,None,None,,,,,,,,,,,,,,,,,,,,,,,,,,,,,,,,,,,,,,,,,,ninoshkka,001,2024-02-29_15h54.16.260,M2_experiment1,2023.2.3,60.07514200028877,2024-02-29 15h54.40.388407 +0100,
27,ModifiedSH,resources/new_sounds_2/M4flesh.wav,0.722767978649223,None,None,None,None,r,M,0,5,5,3,,,,,62.30740239995066,,,,,,,,,,,,,,,,,,,,,,,,,,,,,,,,,,,,,,,,,,,,,,,,,62.285276200040244,62.30740239995066,62.80018799996469,0.5152847999706864,63.516409300034866,63.533359799999744,,64.01622590003535,64.26813240000047,e,0.7400072000455111,None,None,,,,,,,,,,,,,,,,,,,,,,,,,,,,,,,,,,,,,,,,,,ninoshkka,001,2024-02-29_15h54.16.260,M2_experiment1,2023.2.3,60.07514200028877,2024-02-29 15h54.40.388407 +0100,
35,NotModifiedSH,resources/new_sounds_not_modified/M7mosh.wav,0.618134342110551,None,None,None,None,e,M,0,6,6,11,,,,,64.29541330004577,,,,,,,,,,,,,,,,,,,,,,,,,,,,,,,,,,,,,,,,,,,,,,,,,64.26906289998442,64.29541330004577,64.78261440002825,0.5140003999695182,65.39923590002581,65.42984630004503,,65.8988428999437,65.91759780002758,e,0.5158799999626353,None,None,,,,,,,,,,,,,,,,,,,,,,,,,,,,,,,,,,,,,,,,,,ninoshkka,001,2024-02-29_15h54.16.260,M2_experiment1,2023.2.3,60.07514200028877,2024-02-29 15h54.40.388407 +0100,
24,NotModifiedT,resources/new_sounds_not_modified/F1party.wav,0.63399526438517,None,None,None,None,e,F,0,7,7,0,,,,,65.9418166000396,,,,,,,,,,,,,,,,,,,,,,,,,,,,,,,,,,,,,,,,,,,,,,,,,65.9185407999903,65.9418166000396,66.43219720001798,0.5141209999565035,67.06530480005313,67.09561600000598,1.1476654999423772,67.56506419996731,67.56701769994106,e,0.4888517000945285,None,None,,,,,,,,,,,,,,,,,,,,,,,,,,,,,,,,,,,,,,,,,,ninoshkka,001,2024-02-29_15h54.16.260,M2_experiment1,2023.2.3,60.07514200028877,2024-02-29 15h54.40.388407 +0100,
54,NotModifiedSH,resources/new_sounds_not_modified/F5thrasher.wav,0.585496600933162,None,None,None,None,e,F,0,8,8,30,,,,,67.59414780000225,,,,,,,,,,,,,,,,,,,,,,,,,,,,,,,,,,,,,,,,,,,,,,,,,67.56803219998255,67.59414780000225,68.08160240005236,0.5140265999361873,68.6648488000501,68.69701699994039,,69.16447409999091,69.4999326999532,r,0.8256259000627324,None,None,,,,,,,,,,,,,,,,,,,,,,,,,,,,,,,,,,,,,,,,,,ninoshkka,001,2024-02-29_15h54.16.260,M2_experiment1,2023.2.3,60.07514200028877,2024-02-29 15h54.40.388407 +0100,
45,NotModifiedSH,resources/new_sounds_not_modified/F3mosh.wav,0.628649263052651,None,None,None,None,e,F,0,9,9,21,,,,,69.52771269995719,,,,,,,,,,,,,,,,,,,,,,,,,,,,,,,,,,,,,,,,,,,,,,,,,69.50140549999196,69.52771269995719,70.01423349999823,0.5135524000506848,70.63078789995052,70.66841439995915,1.1677348000230268,71.13057719997596,71.46601830003783,e,0.8266516999574378,None,None,,,,,,,,,,,,,,,,,,,,,,,,,,,,,,,,,,,,,,,,,,ninoshkka,001,2024-02-29_15h54.16.260,M2_experiment1,2023.2.3,60.07514200028877,2024-02-29 15h54.40.388407 +0100,
42,NotModifiedT,resources/new_sounds_not_modified/F4feat.wav,0.478604920503187,None,None,None,None,e,F,0,10,10,18,,,,,71.49399850005284,,,,,,,,,,,,,,,,,,,,,,,,,,,,,,,,,,,,,,,,,,,,,,,,,71.4670216999948,71.49399850005284,71.98023740004282,0.5136812999844551,72.44694669998717,72.46351389994379,0.9969792999327183,,72.84843859996181,e,0.38573690003249794,None,None,,,,,,,,,,,,,,,,,,,,,,,,,,,,,,,,,,,,,,,,,,ninoshkka,001,2024-02-29_15h54.16.260,M2_experiment1,2023.2.3,60.07514200028877,2024-02-29 15h54.40.388407 +0100,
37,ModifiedT,resources/new_sounds_2/F4lot.wav,0.449274376417234,None,None,None,None,r,F,0,11,11,13,,,,,72.87339820002671,,,,,,,,,,,,,,,,,,,,,,,,,,,,,,,,,,,,,,,,,,,,,,,,,72.849353000056,72.87339820002671,73.36310700001195,0.5142065000254661,73.81314400001429,73.81314400001429,0.9647557000862435,74.31278529996052,74.56471539998893,e,0.738896100083366,None,None,,,,,,,,,,,,,,,,,,,,,,,,,,,,,,,,,,,,,,,,,,ninoshkka,001,2024-02-29_15h54.16.260,M2_experiment1,2023.2.3,60.07514200028877,2024-02-29 15h54.40.388407 +0100,
28,ModifiedSH,resources/new_sounds_2/F3flushing.wav,0.687845804988662,None,None,None,None,r,F,0,12,12,4,,,,,74.59289500000887,,,,,,,,,,,,,,,,,,,,,,,,,,,,,,,,,,,,,,,,,,,,,,,,,74.56569419999141,74.59289500000887,75.07921899994835,0.5139933000318706,75.76239339995664,75.77904059994034,1.213817499927245,76.26207069994416,77.2472205000231,r,1.4751010000472888,None,None,,,,,,,,,,,,,,,,,,,,,,,,,,,,,,,,,,,,,,,,,,ninoshkka,001,2024-02-29_15h54.16.260,M2_experiment1,2023.2.3,60.07514200028877,2024-02-29 15h54.40.388407 +0100,
26,ModifiedSH,resources/new_sounds_2/F2fleshing.wav,0.620294784580499,None,None,None,None,r,F,0,13,13,2,,,,,77.27437530003954,,,,,,,,,,,,,,,,,,,,,,,,,,,,,,,,,,,,,,,,,,,,,,,,,77.24819910002407,77.27437530003954,77.76166690001264,0.5139255000976846,78.37812550005037,78.39485449995846,1.1471075000008568,78.87783200002741,78.94678909995127,e,0.5573975999141112,None,None,,,,,,,,,,,,,,,,,,,,,,,,,,,,,,,,,,,,,,,,,,ninoshkka,001,2024-02-29_15h54.16.260,M2_experiment1,2023.2.3,60.07514200028877,2024-02-29 15h54.40.388407 +0100,
41,ModifiedT,resources/new_sounds_2/F4utter.wav,0.53952380952381,None,None,None,None,r,F,0,14,14,17,,,,,78.97147580003366,,,,,,,,,,,,,,,,,,,,,,,,,,,,,,,,,,,,,,,,,,,,,,,,,78.94776430004276,78.97147580003366,79.46116920001805,0.5138655999908224,79.99397189996671,80.01063060003798,1.0633025000570342,,80.39744610001799,e,0.38578350003808737,None,None,,,,,,,,,,,,,,,,,,,,,,,,,,,,,,,,,,,,,,,,,,ninoshkka,001,2024-02-29_15h54.16.260,M2_experiment1,2023.2.3,60.07514200028877,2024-02-29 15h54.40.388407 +0100,
46,NotModifiedT,resources/new_sounds_not_modified/M6pet.wav,0.506976177381986,None,None,None,None,e,M,0,15,15,22,,,,,80.43080880003981,,,,,,,,,,,,,,,,,,,,,,,,,,,,,,,,,,,,,,,,,,,,,,,,,80.39900870004203,80.43080880003981,80.91154500003904,0.513298699981533,81.41201139998157,81.42815429996699,1.0299047000007704,81.91180680005345,83.4130945999641,e,1.9922321999911219,None,None,,,,,,,,,,,,,,,,,,,,,,,,,,,,,,,,,,,,,,,,,,ninoshkka,001,2024-02-29_15h54.16.260,M2_experiment1,2023.2.3,60.07514200028877,2024-02-29 15h54.40.388407 +0100,
53,NotModifiedSH,resources/new_sounds_not_modified/M6fresher.wav,0.558439616650624,None,None,None,None,e,M,0,16,16,29,,,,,83.44629380002152,,,,,,,,,,,,,,,,,,,,,,,,,,,,,,,,,,,,,,,,,,,,,,,,,83.41451479995158,83.44629380002152,83.92928050004411,0.5155235000420362,84.47615700005554,84.49298410001211,1.079136100015603,84.97590790002141,85.63259399996605,e,1.1440101000480354,None,None,,,,,,,,,,,,,,,,,,,,,,,,,,,,,,,,,,,,,,,,,,ninoshkka,001,2024-02-29_15h54.16.260,M2_experiment1,2023.2.3,60.07514200028877,2024-02-29 15h54.40.388407 +0100,
48,ModifiedT,resources/new_sounds_2/M3lottery.wav,0.649773242630385,None,None,None,None,r,M,0,17,17,24,,,,,85.66650020005181,,,,,,,,,,,,,,,,,,,,,,,,,,,,,,,,,,,,,,,,,,,,,,,,,85.63412039994728,85.66650020005181,86.14302509999834,0.5096147999865934,86.79300059995148,86.79300059995148,1.160333100007847,87.29332699999213,87.65061180002522,e,0.8376760999672115,None,None,,,,,,,,,,,,,,,,,,,,,,,,,,,,,,,,,,,,,,,,,,ninoshkka,001,2024-02-29_15h54.16.260,M2_experiment1,2023.2.3,60.07514200028877,2024-02-29 15h54.40.388407 +0100,
34,ModifiedSH,resources/new_sounds_2/M7mosh.wav,0.486031746031746,None,None,None,None,r,M,0,18,18,10,,,,,87.68540940003004,,,,,,,,,,,,,,,,,,,,,,,,,,,,,,,,,,,,,,,,,,,,,,,,,87.65283829998225,87.68540940003004,88.15885170002002,0.5069853999884799,88.64280779997353,88.65905370004475,1.007194499950856,89.14277919998858,89.52945369994268,e,0.879137400072068,None,None,,,,,,,,,,,,,,,,,,,,,,,,,,,,,,,,,,,,,,,,,,ninoshkka,001,2024-02-29_15h54.16.260,M2_experiment1,2023.2.3,60.07514200028877,2024-02-29 15h54.40.388407 +0100,
33,ModifiedT,resources/new_sounds_2/M7fatter.wav,0.644739229024943,None,None,None,None,r,M,0,19,19,9,,,,,89.56301649997476,,,,,,,,,,,,,,,,,,,,,,,,,,,,,,,,,,,,,,,,,,,,,,,,,89.53098150005098,89.56301649997476,90.04163039999548,0.5113561000907794,90.67821120005101,90.69392140000127,1.16364720009733,91.17532170005143,91.52748199994676,r,0.8456740999827161,None,None,,,,,,,,,,,,,,,,,,,,,,,,,,,,,,,,,,,,,,,,,,ninoshkka,001,2024-02-29_15h54.16.260,M2_experiment1,2023.2.3,60.07514200028877,2024-02-29 15h54.40.388407 +0100,
44,ModifiedSH,resources/new_sounds_2/F2thrasher.wav,0.510249433106576,None,None,None,None,r,F,0,20,20,20,,,,,91.56356529996265,,,,,,,,,,,,,,,,,,,,,,,,,,,,,,,,,,,,,,,,,,,,,,,,,91.5290053000208,91.56356529996265,92.04142420005519,0.5131277000764385,92.5407468000194,92.55756190000102,1.0292573000770062,93.0415521999821,93.32955759996548,e,0.7721548000117764,None,None,,,,,,,,,,,,,,,,,,,,,,,,,,,,,,,,,,,,,,,,,,ninoshkka,001,2024-02-29_15h54.16.260,M2_experiment1,2023.2.3,60.07514200028877,2024-02-29 15h54.40.388407 +0100,
25,ModifiedSH,resources/new_sounds_2/F1swoosh.wav,0.770486715748874,None,None,None,None,r,F,0,21,21,1,,,,,93.36269820004236,,,,,,,,,,,,,,,,,,,,,,,,,,,,,,,,,,,,,,,,,,,,,,,,,93.3311194999842,93.36269820004236,93.8400157999713,0.5096282000886276,94.60875749995466,94.62473819998559,,95.10789850004949,95.48164689994883,e,0.8543418000917882,None,None,,,,,,,,,,,,,,,,,,,,,,,,,,,,,,,,,,,,,,,,,,ninoshkka,001,2024-02-29_15h54.16.260,M2_experiment1,2023.2.3,60.07514200028877,2024-02-29 15h54.40.388407 +0100,
51,NotModifiedSH,resources/new_sounds_not_modified/M4mosh.wav,0.573267020202984,None,None,None,None,e,M,0,22,22,27,,,,,95.51394470001105,,,,,,,,,,,,,,,,,,,,,,,,,,,,,,,,,,,,,,,,,,,,,,,,,95.48384070000611,95.51394470001105,95.98967399995308,0.5066771999699995,96.55902249994688,96.59414850000758,1.1111840000376105,97.05680180003401,97.49106659996323,e,0.9248942999402061,None,None,,,,,,,,,,,,,,,,,,,,,,,,,,,,,,,,,,,,,,,,,,ninoshkka,001,2024-02-29_15h54.16.260,M2_experiment1,2023.2.3,60.07514200028877,2024-02-29 15h54.40.388407 +0100,
47,ModifiedT,resources/new_sounds_2/M6root.wav,0.557210884353742,None,None,None,None,r,M,0,23,23,23,,,,,97.5247010999592,,,,,,,,,,,,,,,,,,,,,,,,,,,,,,,,,,,,,,,,,,,,,,,,,97.49262509995606,97.5247010999592,98.00621190003585,0.5143174000550061,98.5563510999782,98.57229110004846,1.0803874999983236,99.0546377999708,99.47347179998178,e,0.9127348000183702,None,None,,,,,,,,,,,,,,,,,,,,,,,,,,,,,,,,,,,,,,,,,,ninoshkka,001,2024-02-29_15h54.16.260,M2_experiment1,2023.2.3,60.07514200028877,2024-02-29 15h54.40.388407 +0100,
31,NotModifiedT,resources/new_sounds_not_modified/F3footer.wav,0.573733808005514,None,None,None,None,e,F,0,24,24,7,,,,,99.5055083000334,,,,,,,,,,,,,,,,,,,,,,,,,,,,,,,,,,,,,,,,,,,,,,,,,99.47452359995805,99.5055083000334,99.98753849999048,0.513514899997972,100.55420769995544,100.57083600002807,1.096798999933526,101.06162399996538,101.3220284000272,r,0.759922800003551,None,None,,,,,,,,,,,,,,,,,,,,,,,,,,,,,,,,,,,,,,,,,,ninoshkka,001,2024-02-29_15h54.16.260,M2_experiment1,2023.2.3,60.07514200028877,2024-02-29 15h54.40.388407 +0100,
49,NotModifiedT,resources/new_sounds_not_modified/M2lot.wav,0.466575772426751,None,None,None,None,e,M,0,25,25,25,,,,,101.3535450999625,,,,,,,,,,,,,,,,,,,,,,,,,,,,,,,,,,,,,,,,,,,,,,,,,101.32298950001132,101.3535450999625,101.83801119995769,0.515548299998045,102.3039619999472,102.3039619999472,0.9822352998889983,102.80513810005505,103.1437199000502,e,0.8353490000590682,None,None,,,,,,,,,,,,,,,,,,,,,,,,,,,,,,,,,,,,,,,,,,ninoshkka,001,2024-02-29_15h54.16.260,M2_experiment1,2023.2.3,60.07514200028877,2024-02-29 15h54.40.388407 +0100,
32,ModifiedT,resources/new_sounds_2/M2city.wav,0.658866213151928,None,None,None,None,r,M,0,26,26,8,,,,,103.17741100001149,,,,,,,,,,,,,,,,,,,,,,,,,,,,,,,,,,,,,,,,,,,,,,,,,103.14545660000294,103.17741100001149,103.65408330003265,0.5095296000363305,104.30287569994107,104.31933690002188,1.1747349000070244,104.81924740003888,105.02103509998415,e,0.7024652999825776,None,None,,,,,,,,,,,,,,,,,,,,,,,,,,,,,,,,,,,,,,,,,,ninoshkka,001,2024-02-29_15h54.16.260,M2_experiment1,2023.2.3,60.07514200028877,2024-02-29 15h54.40.388407 +0100,
52,NotModifiedSH,resources/new_sounds_not_modified/M4swoosh.wav,0.736227123531279,None,None,None,None,e,M,0,27,27,28,,,,,105.04618239996489,,,,,,,,,,,,,,,,,,,,,,,,,,,,,,,,,,,,,,,,,,,,,,,,,105.02203140000347,105.04618239996489,105.53563159995247,0.514056000043638,106.26874790003058,106.28534679999575,1.2637683000648394,,106.63738249999005,e,0.3615364000434056,None,None,,,,,,,,,,,,,,,,,,,,,,,,,,,,,,,,,,,,,,,,,,ninoshkka,001,2024-02-29_15h54.16.260,M2_experiment1,2023.2.3,60.07514200028877,2024-02-29 15h54.40.388407 +0100,
29,NotModifiedT,resources/new_sounds_2/M4getting.wav,0.612123590008089,None,None,None,None,e,M,0,28,28,5,,,,,106.66278919996694,,,,,,,,,,,,,,,,,,,,,,,,,,,,,,,,,,,,,,,,,,,,,,,,,106.63837389997207,106.66278919996694,107.15171530004591,0.5138024999760091,107.75148480001371,107.7682715000119,1.1303550000302494,108.2512732000323,108.66982559999451,e,0.9063898000167683,None,None,,,,,,,,,,,,,,,,,,,,,,,,,,,,,,,,,,,,,,,,,,ninoshkka,001,2024-02-29_15h54.16.260,M2_experiment1,2023.2.3,60.07514200028877,2024-02-29 15h54.40.388407 +0100,
39,ModifiedSH,resources/new_sounds_2/M7fresher.wav,0.497256235827664,None,None,None,None,r,M,0,29,29,15,,,,,108.69938010000624,,,,,,,,,,,,,,,,,,,,,,,,,,,,,,,,,,,,,,,,,,,,,,,,,108.67080770002212,108.69938010000624,109.18482409999706,0.5145244000013918,109.66948599996977,109.68507709994446,1.0147780000697821,110.16852389997803,110.41995799995493,r,0.7402275999775156,None,None,,,,,,,,,,,,,,,,,,,,,,,,,,,,,,,,,,,,,,,,,,ninoshkka,001,2024-02-29_15h54.16.260,M2_experiment1,2023.2.3,60.07514200028877,2024-02-29 15h54.40.388407 +0100,
40,ModifiedSH,resources/new_sounds_2/F5fresher.wav,0.567437641723356,None,None,None,None,r,F,0,30,30,16,,,,,110.45160379994195,,,,,,,,,,,,,,,,,,,,,,,,,,,,,,,,,,,,,,,,,,,,,,,,,110.42134520004038,110.45160379994195,110.93439850001596,0.513708799961023,111.50561009999365,111.50561009999365,,112.00113959994633,112.6912879999727,r,1.1713617999339476,None,None,,,,,,,,,,,,,,,,,,,,,,,,,,,,,,,,,,,,,,,,,,ninoshkka,001,2024-02-29_15h54.16.260,M2_experiment1,2023.2.3,60.07514200028877,2024-02-29 15h54.40.388407 +0100,
,,,,,,,,,,,,,,,,,,,,,,,,,,,,,,,,,,,,,,,,,,,,,,,,,,,,,,,,,,,,,,,,,,,,,,,,,,,,,,,,112.69280349998735,112.70860240003094,112.70860240003094,120.23179780005012,space,7.509102800046094,None,,,,,,,,,,,,,,,,,,,,,,,,,,,,,,,,,,,ninoshkka,001,2024-02-29_15h54.16.260,M2_experiment1,2023.2.3,60.07514200028877,2024-02-29 15h54.40.388407 +0100,
,,,,,,,,,,,,,,,,,,,,,,,,,,,,,,,,,,,,,,,,,,,,,,,,,,,,,,,,,,,,,,,,,,,,,,,,,,,,,,,,,,,,,,,120.23184869997203,120.24752380000427,120.24752380000427,128.01898880000226,space,7.7592434999533,None,,,,,,,,,,,,,,,,,,,,,,,,,,,,ninoshkka,001,2024-02-29_15h54.16.260,M2_experiment1,2023.2.3,60.07514200028877,2024-02-29 15h54.40.388407 +0100,
1,ModifiedT,resources/new_sounds_not_modified/F2fit.wav,0.374261916532496,resources/new_sounds_not_modified/F5fish.wav,0.478583202882902,resources/new_sounds_2/F4fit.wav,0.41736473916697,1,F,,,,,0,0,0,0,128.11860929999966,,,,,,,,,,,,,,,,,,,,,,,,,,,,,,,,,,,,,,,,,,,,,,,,,,,,,,,,,,,,,,,,,,,,,,,,,,,,128.0715173999779,128.11860929999966,128.52751729998272,0.5085655000293627,128.91086069995072,0.8918964000185952,129.3938539000228,129.3942097999854,129.88321110000834,129.88321110000834,130.3769401999889,130.3770965999458,130.7936810000101,130.7936810000101,131.2934465999715,133.36157800001092,e,2.556202800013125,None,None,0,,,,,,,ninoshkka,001,2024-02-29_15h54.16.260,M2_experiment1,2023.2.3,60.07514200028877,2024-02-29 15h54.40.388407 +0100,
5,ModifiedT,resources/new_sounds_not_modified/F4met.wav,0.44494520825283956,resources/new_sounds_2/F2met.wav,0.634104308390023,resources/new_sounds_not_modified/F1mesh.wav,0.5571319490698841,1,F,,,,,0,1,1,4,133.40807849995326,,,,,,,,,,,,,,,,,,,,,,,,,,,,,,,,,,,,,,,,,,,,,,,,,,,,,,,,,,,,,,,,,,,,,,,,,,,,133.3629161999561,133.40807849995326,133.87580889998935,0.513348100008443,134.32568530004937,0.963226200081408,134.80890880001243,134.80882530000525,135.47559369995724,,135.94189839996397,135.94185150000266,136.51764580002055,136.51764580002055,137.00816740002483,140.39275220001582,e,3.871680499985814,None,None,0,136.51764580002055,,,,,,ninoshkka,001,2024-02-29_15h54.16.260,M2_experiment1,2023.2.3,60.07514200028877,2024-02-29 15h54.40.388407 +0100,
15,ModifiedSH,resources/new_sounds_not_modified/M2fish.wav,0.602031419699607,resources/new_sounds_not_modified/M5fit.wav,0.593107043618346,resources/new_sounds_2/M1fish.wav,0.512562358276644,1,M,,,,,0,2,2,14,140.4389358999906,,,,,,,,,,,,,,,,,,,,,,,,,,,,,,,,,,,,,,,,,,,,,,,,,,,,,,,,,,,,,,,,,,,,,,,,,,,,140.39366209995933,140.4389358999906,140.90676829998847,0.5135404999600723,141.5354005000554,21.57488949992694,142.01011579995975,142.00786449997685,142.61558870004956,161.9875047999667,143.09262669994496,143.09055929996538,143.62713749997783,143.60336569999345,144.1100966000231,163.03012809995562,r,19.41075240005739,None,p,2,161.9875047999667,14.952684000018053,0.03687569999601692,,,,ninoshkka,001,2024-02-29_15h54.16.260,M2_experiment1,2023.2.3,60.07514200028877,2024-02-29 15h54.40.388407 +0100,
14,ModifiedSH,resources/new_sounds_not_modified/F2bosh.wav,0.494392229081527,resources/new_sounds_not_modified/F5bot.wav,0.485673207115724,resources/new_sounds_2/F1bosh.wav,0.520634920634921,1,F,,,,,0,3,3,13,163.12069000001065,,,,,,,,,,,,,,,,,,,,,,,,,,,,,,,,,,,,,,,,,,,,,,,,,,,,,,,,,,,,,,,,,,,,,,,,,,,,163.03277289995458,163.12069000001065,163.53364279994275,0.5017314000288025,164.03274479997344,1.0008251999970526,164.5340615999885,164.53231860003433,165.03760939999484,165.03760939999484,165.51505489996634,165.5146451000357,166.05095599999186,166.05095599999186,166.54688839998562,166.94846470002085,r,0.8941925000399351,None,None,0,166.05095599999186,,,,,,ninoshkka,001,2024-02-29_15h54.16.260,M2_experiment1,2023.2.3,60.07514200028877,2024-02-29 15h54.40.388407 +0100,
10,ModifiedT,resources/new_sounds_not_modified/M2fit.wav,0.423218058079414,resources/new_sounds_not_modified/M5fish.wav,0.451129071842058,resources/new_sounds_2/M4fit.wav,0.597210884353741,1,M,,,,,0,4,4,9,166.98511799995322,,,,,,,,,,,,,,,,,,,,,,,,,,,,,,,,,,,,,,,,,,,,,,,,,,,,,,,,,,,,,,,,,,,,,,,,,,,,166.94917999999598,166.98511799995322,167.46331120003015,0.5144819000270218,167.89636190002784,0.9475208000512794,168.37949389999267,168.37929260001982,168.84582050004974,168.84582050004974,169.3298445000546,169.3297180999536,169.93753999995533,169.93753999995533,170.42931379994843,171.14778560004197,t,1.1999451000010595,None,None,0,169.93753999995533,,,,,,ninoshkka,001,2024-02-29_15h54.16.260,M2_experiment1,2023.2.3,60.07514200028877,2024-02-29 15h54.40.388407 +0100,
13,ModifiedT,resources/new_sounds_not_modified/F1fish.wav,0.519196656146427,resources/new_sounds_not_modified/F4fit.wav,0.297524783699501,resources/new_sounds_2/F2fit.wav,0.443741496598639,2,F,,,,,0,5,5,12,171.18653539998922,,,,,,,,,,,,,,,,,,,,,,,,,,,,,,,,,,,,,,,,,,,,,,,,,,,,,,,,,,,,,,,,,,,,,,,,,,,,171.14856320002582,171.18653539998922,171.66442479996476,0.5163107000989839,172.2111388000194,,172.66950850002468,172.6665569999488,172.9961578999646,,173.479094899958,173.47929500001482,173.93467129999772,173.91237419995014,174.4120573999826,175.5141754000215,e,1.5910347999306396,None,None,0,173.93467129999772,,,,,,ninoshkka,001,2024-02-29_15h54.16.260,M2_experiment1,2023.2.3,60.07514200028877,2024-02-29 15h54.40.388407 +0100,
12,ModifiedSH,resources/new_sounds_not_modified/F4bot.wav,0.390471530438234,resources/new_sounds_not_modified/F3bosh.wav,0.505513996768869,resources/new_sounds_2/F2bosh.wav,0.423673469387755,2,F,,,,,0,6,6,11,175.56140190002043,,,,,,,,,,,,,,,,,,,,,,,,,,,,,,,,,,,,,,,,,,,,,,,,,,,,,,,,,,,,,,,,,,,,,,,,,,,,175.51516009995248,175.56140190002043,176.02842949994374,0.513714199885726,176.42851740005426,0.9138002999825403,176.91139110003132,176.91132460003718,177.42961410002317,177.42961410002317,177.9111116999993,177.9110230999533,178.3478409999516,178.3478409999516,178.8438584000105,179.3465088000521,e,0.9860192000633106,None,None,0,178.3478409999516,,,,,,ninoshkka,001,2024-02-29_15h54.16.260,M2_experiment1,2023.2.3,60.07514200028877,2024-02-29 15h54.40.388407 +0100,
17,ModifiedT,resources/new_sounds_2/M2bosh.wav,0.387165532879819,resources/new_sounds_not_modified/M6bot.wav,0.501070841911371,resources/new_sounds_not_modified/M5bosh.wav,0.597358038485993,2,M,,,,,0,7,7,16,179.39378579996992,,,,,,,,,,,,,,,,,,,,,,,,,,,,,,,,,,,,,,,,,,,,,,,,,,,,,,,,,,,,,,,,,,,,,,,,,,,,179.34748490003403,179.39378579996992,179.86062259995379,0.5135801999131218,180.26021520001814,0.913170599960722,180.74316690000705,180.7432749999454,181.2542359000072,181.2752539999783,181.74307810002938,181.74301160003523,182.3514858999988,182.3514858999988,182.84263630001806,183.3785773999989,e,1.024460899992846,None,None,0,182.3514858999988,,,,,,ninoshkka,001,2024-02-29_15h54.16.260,M2_experiment1,2023.2.3,60.07514200028877,2024-02-29 15h54.40.388407 +0100,
6,ModifiedT,resources/new_sounds_not_modified/M1met.wav,0.532038259057699,resources/new_sounds_2/M3met.wav,0.558503401360544,resources/new_sounds_not_modified/M5mesh.wav,0.5032130872900709,1,M,,,,,0,8,8,5,183.42518699995708,,,,,,,,,,,,,,,,,,,,,,,,,,,,,,,,,,,,,,,,,,,,,,,,,,,,,,,,,,,,,,,,,,,,,,,,,,,,183.3795535999816,183.42518699995708,183.89624599996023,0.5172065000515431,184.44271450000815,1.0636571999639273,184.92678970005363,184.92573810000903,185.5004484000383,185.5004484000383,185.97690060001332,185.97538759994785,186.49591840000357,186.49591840000357,186.9767533999402,187.8988581999438,r,1.3985878999810666,None,None,0,186.49591840000357,,,,,,ninoshkka,001,2024-02-29_15h54.16.260,M2_experiment1,2023.2.3,60.07514200028877,2024-02-29 15h54.40.388407 +0100,
2,ModifiedSh,resources/new_sounds_not_modified/F2fish.wav,0.528250066930233,resources/new_sounds_2/F1fit.wav,0.423218058079413,resources/new_sounds_not_modified/F5fit.wav,0.2975247836995,3,F,,,,,0,9,9,1,187.96808899997268,,,,,,,,,,,,,,,,,,,,,,,,,,,,,,,,,,,,,,,,,,,,,,,,,,,,,,,,,,,,,,,,,,,,,,,,,,,,187.90057309996337,187.96808899997268,188.40855699998792,0.5087634999072179,188.94025510002393,1.0403904999839142,189.4417790999869,189.44100359994917,189.88205480005126,189.88205480005126,190.35831309994683,190.35753229998517,190.6820527999662,190.6820527999662,191.1587859999854,192.0784316000063,t,1.379649500013329,None,None,0,190.6820527999662,,,,,,ninoshkka,001,2024-02-29_15h54.16.260,M2_experiment1,2023.2.3,60.07514200028877,2024-02-29 15h54.40.388407 +0100,
16,ModifiedT,resources/new_sounds_2/M2fit.wav,0.646553287981859,resources/new_sounds_not_modified/M4fit.wav,0.508424667314028,resources/new_sounds_not_modified/M5fish.wav,0.451129071842058,2,M,,,,,0,10,10,15,192.1190921999514,,,,,,,,,,,,,,,,,,,,,,,,,,,,,,,,,,,,,,,,,,,,,,,,,,,,,,,,,,,,,,,,,,,,,,,,,,,,192.07946399995126,192.1190921999514,192.58917419996578,0.5101843000156805,193.23966870002914,1.1606859000166878,193.73909020004794,193.73925300005357,194.2604024000466,194.2604024000466,194.73887600004673,194.73874360001645,195.20548160001636,195.18884870002512,195.68901480000932,196.15847439994104,t,0.9613594999536872,None,None,0,195.20548160001636,,,,,,ninoshkka,001,2024-02-29_15h54.16.260,M2_experiment1,2023.2.3,60.07514200028877,2024-02-29 15h54.40.388407 +0100,
8,ModifiedSH,resources/new_sounds_not_modified/M3bot.wav,0.368685295497059,resources/new_sounds_not_modified/M1bosh.wav,0.5055628425466665,resources/new_sounds_2/M5bosh.wav,0.4857823129251701,2,M,,,,,0,11,11,7,196.21347189997323,,,,,,,,,,,,,,,,,,,,,,,,,,,,,,,,,,,,,,,,,,,,,,,,,,,,,,,,,,,,,,,,,,,,,,,,,,,,196.15963500004727,196.21347189997323,196.6719407000346,0.5128605999052525,197.07035509997513,9.514150999952108,197.53767790005077,197.53810419996734,198.0581764000235,205.6915598999476,198.53757439996116,198.53781469997483,199.03910059994087,199.02084160002414,199.5208165999502,207.1323724000249,r,8.103306900011376,None,p,1,205.6915598999476,6.453605300048366,None,,,,ninoshkka,001,2024-02-29_15h54.16.260,M2_experiment1,2023.2.3,60.07514200028877,2024-02-29 15h54.40.388407 +0100,
20,ModifiedSH,resources/new_sounds_2/F2push.wav,0.418027210884354,resources/new_sounds_not_modified/F4push.wav,0.436144678520506,resources/new_sounds_not_modified/F3put.wav,0.437781204290985,2,F,,,,,0,12,12,19,207.21248590003233,,,,,,,,,,,,,,,,,,,,,,,,,,,,,,,,,,,,,,,,,,,,,,,,,,,,,,,,,,,,,,,,,,,,,,,,,,,,207.13496389996726,207.21248590003233,207.63458519999404,0.5005395000334829,208.05102969997097,,208.56811130000278,208.56720850004348,209.03384699998423,209.01431190001313,209.49931860005017,209.4990009000059,209.95021000003908,209.93228730000556,210.4321732999524,210.85232689999975,e,0.9162550000473857,None,None,0,209.95021000003908,,,,,,ninoshkka,001,2024-02-29_15h54.16.260,M2_experiment1,2023.2.3,60.07514200028877,2024-02-29 15h54.40.388407 +0100,
21,ModifiedSH,resources/new_sounds_not_modified/F5fish.wav,0.478583202882902,resources/new_sounds_2/F4fish.wav,0.366258503401361,resources/new_sounds_not_modified/F2fit.wav,0.374261916532497,3,F,,,,,0,13,13,20,210.88376929995138,,,,,,,,,,,,,,,,,,,,,,,,,,,,,,,,,,,,,,,,,,,,,,,,,,,,,,,,,,,,,,,,,,,,,,,,,,,,210.85370750003494,210.88376929995138,211.3653204999864,0.5122344000265002,211.8485319999745,0.9954445000039414,212.33183649997227,212.33166519999503,212.7080288999714,212.7080288999714,213.19845380005427,213.198200800037,213.59517860005144,213.59517860005144,214.08189240004867,215.60308170004282,t,2.0032525999704376,None,None,0,213.59517860005144,,,,,,ninoshkka,001,2024-02-29_15h54.16.260,M2_experiment1,2023.2.3,60.07514200028877,2024-02-29 15h54.40.388407 +0100,
4,ModifiedT,resources/new_sounds_not_modified/M4mat.wav,0.4451593985921889,resources/new_sounds_2/M3mat.wav,0.494308390022676,resources/new_sounds_not_modified/M2mash.wav,0.7358947371573947,1,M,,,,,0,14,14,3,215.66149029997177,,,,,,,,,,,,,,,,,,,,,,,,,,,,,,,,,,,,,,,,,,,,,,,,,,,,,,,,,,,,,,,,,,,,,,,,,,,,215.60431810002774,215.66149029997177,216.11649449996185,0.5128195999423042,216.5649720999645,0.9612469000276178,217.06460819998756,217.06472760001196,217.57534209999721,217.57534209999721,218.04768139997032,218.04748979995492,218.80820009997115,218.78075559996068,219.28076999995392,219.9366528999526,e,1.1523866999195889,None,None,0,218.80820009997115,,,,,,ninoshkka,001,2024-02-29_15h54.16.260,M2_experiment1,2023.2.3,60.07514200028877,2024-02-29 15h54.40.388407 +0100,
19,ModifiedT,resources/new_sounds_2/F2put.wav,0.521360544217687,resources/new_sounds_not_modified/F4push.wav,0.436144678520506,resources/new_sounds_not_modified/F5put.wav,0.363522850118329,2,F,,,,,0,15,15,18,219.9808623000281,,,,,,,,,,,,,,,,,,,,,,,,,,,,,,,,,,,,,,,,,,,,,,,,,,,,,,,,,,,,,,,,,,,,,,,,,,,,219.93790410005022,219.9808623000281,220.44686160003766,0.5095615999307483,220.98012560000643,1.042811100021936,221.46306380000897,221.46331339997704,221.92963280004915,,222.39631300000474,222.39616319995838,222.77645849995315,222.77645849995315,223.26277040003333,224.18358740000986,e,1.3994422999676317,None,None,0,222.77645849995315,,,,,,ninoshkka,001,2024-02-29_15h54.16.260,M2_experiment1,2023.2.3,60.07514200028877,2024-02-29 15h54.40.388407 +0100,
9,ModifiedSH,resources/new_sounds_not_modified/M4bot.wav,0.453615769026229,resources/new_sounds_not_modified/M3bosh.wav,0.524217377306996,resources/new_sounds_2/M2bosh.wav,0.387165532879819,2,M,,,,,0,16,16,8,224.23511100001633,,,,,,,,,,,,,,,,,,,,,,,,,,,,,,,,,,,,,,,,,,,,,,,,,,,,,,,,,,,,,,,,,,,,,,,,,,,,224.18484490003902,224.23511100001633,224.6940010000253,0.5097389000002295,225.161363500054,0.977062200079672,225.64628029998858,225.64526629999745,226.18564559996594,226.18564559996594,226.6622104999842,226.66180189994628,227.0676938999677,227.0676938999677,,227.47978219995275,e,0.4078170999418944,None,None,0,227.0676938999677,,,,,,ninoshkka,001,2024-02-29_15h54.16.260,M2_experiment1,2023.2.3,60.07514200028877,2024-02-29 15h54.40.388407 +0100,
11,ModifiedSH,resources/new_sounds_not_modified/M1fish.wav,0.569506825661794,resources/new_sounds_2/M7fit.wav,0.485691609977324,resources/new_sounds_not_modified/M3fit.wav,0.479334255844424,3,M,,,,,0,17,17,10,227.52816610003356,,,,,,,,,,,,,,,,,,,,,,,,,,,,,,,,,,,,,,,,,,,,,,,,,,,,,,,,,,,,,,,,,,,,,,,,,,,,227.48068649997003,227.52816610003356,227.9965741999913,0.5165429000044242,228.5771699999459,1.0970426000421867,229.0671175000025,229.06340779997407,229.56757349998225,229.56757349998225,230.04492050001863,230.04416360000613,230.54243819997646,230.51394990005065,231.0287516999524,231.87551969999913,e,1.3457673999946564,None,None,0,230.54243819997646,,,,,,ninoshkka,001,2024-02-29_15h54.16.260,M2_experiment1,2023.2.3,60.07514200028877,2024-02-29 15h54.40.388407 +0100,
3,ModifiedT,resources/new_sounds_2/F5mat.wav,0.565396825396825,resources/new_sounds_not_modified/F4mash.wav,0.38066522534541036,resources/new_sounds_not_modified/F2mat.wav,0.5007174554648515,3,F,,,,,0,18,18,2,231.9455601000227,,,,,,,,,,,,,,,,,,,,,,,,,,,,,,,,,,,,,,,,,,,,,,,,,,,,,,,,,,,,,,,,,,,,,,,,,,,,231.87711749994196,231.9455601000227,232.37706089997664,0.5006752999033779,232.9433625000529,1.0670182999456301,233.4435565000167,233.44270319996866,233.84247040003538,233.84247040003538,234.3268540999852,234.32592759996186,234.84238529996946,234.84238529996946,,235.27981680002995,e,0.42575709999073297,None,None,0,234.84238529996946,,,,,,ninoshkka,001,2024-02-29_15h54.16.260,M2_experiment1,2023.2.3,60.07514200028877,2024-02-29 15h54.40.388407 +0100,
7,ModifiedSH,resources/new_sounds_2/M1bosh.wav,0.4574829931972789,resources/new_sounds_not_modified/M2bot.wav,0.415863975908209,resources/new_sounds_not_modified/M4bosh.wav,0.4533657452807347,3,M,,,,,0,19,19,6,235.34699320001528,,,,,,,,,,,,,,,,,,,,,,,,,,,,,,,,,,,,,,,,,,,,,,,,,,,,,,,,,,,,,,,,,,,,,,,,,,,,235.281522699981,235.34699320001528,235.79235370003153,0.5116948999930173,236.25981119996868,0.9791547000641003,236.74333820003085,236.74177719994913,237.17830399994273,237.17830399994273,237.6591391999973,237.6580324999988,238.12619370000903,238.12619370000903,238.60948270000517,239.1864407999674,e,1.0507138000102714,None,None,0,238.12619370000903,,,,,,ninoshkka,001,2024-02-29_15h54.16.260,M2_experiment1,2023.2.3,60.07514200028877,2024-02-29 15h54.40.388407 +0100,
18,ModifiedT,resources/new_sounds_2/M2put.wav,0.532199546485261,resources/new_sounds_not_modified/M7put.wav,0.410382098763918,resources/new_sounds_not_modified/M5push.wav,0.499025816019625,2,M,,,,,0,20,20,17,239.25601430004463,,,,,,,,,,,,,,,,,,,,,,,,,,,,,,,,,,,,,,,,,,,,,,,,,,,,,,,,,,,,,,,,,,,,,,,,,,,,239.18802670005243,239.25601430004463,239.69132780004293,0.5040399999124929,240.22521649999544,1.0379175998969004,240.72455829998944,240.72366649999748,241.14639370003715,241.14639370003715,241.64112309995107,241.6402409000322,242.15650359995198,242.15650359995198,242.64333069999702,243.14156490005553,r,0.9805105000268668,None,None,0,242.15650359995198,,,,,,ninoshkka,001,2024-02-29_15h54.16.260,M2_experiment1,2023.2.3,60.07514200028877,2024-02-29 15h54.40.388407 +0100,
22,ModifiedSH,resources/new_sounds_not_modified/F1mash.wav,0.601753675244161,resources/new_sounds_2/F3mash.wav,0.42437641723356,resources/new_sounds_not_modified/F4mat.wav,0.401181209050264,3,F,,,,,0,21,21,21,243.1915258000372,,,,,,,,,,,,,,,,,,,,,,,,,,,,,,,,,,,,,,,,,,,,,,,,,,,,,,,,,,,,,,,,,,,,,,,,,,,,243.14256429998204,243.1915258000372,243.65540299995337,0.513312799972482,244.28315509995446,,244.7550751999952,244.75559759994502,245.19494529999793,245.19494529999793,245.67147179995663,245.67127390000968,246.08808500005398,246.0713002999546,246.57114140002523,246.94048810005188,r,0.8622541000368074,None,None,0,246.08808500005398,,,,,,ninoshkka,001,2024-02-29_15h54.16.260,M2_experiment1,2023.2.3,60.07514200028877,2024-02-29 15h54.40.388407 +0100,
,,,,,,,,,,,,,,,,,,,,,,,,,,,,,,,,,,,,,,,,,,,,,,,,,,,,,,,,,,,,,,,,,,,,,,,,,,,,,,,,,,,,,,,,,,,,,,,,,,,,,,,,,,,,,,,,,,,,,,246.94120440003462,246.95550249994267,249.95375830004923,,,,,,,,
