ItemNb,Condition,Sound1,DurationSound1,Sound2,DurationSound2,Sound3,DurationSound3,ExpectedKey,Condition2,trials_task3.thisRepN,trials_task3.thisTrialN,trials_task3.thisN,trials_task3.thisIndex,trials_task1.thisRepN,trials_task1.thisTrialN,trials_task1.thisN,trials_task1.thisIndex,thisRow.t,notes,Welcome.started,textWelcomeMessage.started,keyWelcome.started,Welcome.stopped,keyWelcome.keys,keyWelcome.rt,keyWelcome.duration,Welcome_2.started,textWelcome2.started,key_resp_5.started,Welcome_2.stopped,key_resp_5.keys,key_resp_5.rt,key_resp_5.duration,Welcome_3.started,textWelcome3.started,key_resp_6.started,Welcome_3.stopped,key_resp_6.keys,key_resp_6.rt,key_resp_6.duration,blank.started,blank1.started,blank1.stopped,blank.stopped,volume_explanation.started,text_volume.started,key_resp_8.started,volume_explanation.stopped,key_resp_8.keys,key_resp_8.rt,key_resp_8.duration,volume.started,text_2.started,key_resp_7.started,sound_testvolume.started,volume.stopped,key_resp_7.keys,key_resp_7.rt,key_resp_7.duration,explanation.started,text.started,key_info_oddity.started,explanation.stopped,key_info_oddity.keys,key_info_oddity.rt,key_info_oddity.duration,task3.started,key_replay3.started,text_recording1_3.started,sound1_3.started,key_resp_question3.started,text_recording1_3.stopped,text_questiontask3.started,task3.stopped,key_resp_question3.keys,key_resp_question3.rt,key_resp_question3.duration,key_replay3.keys,sound1_3.stopped,explanation_3.started,text_4.started,key_resp_3.started,explanation_3.stopped,key_resp_3.keys,key_resp_3.rt,key_resp_3.duration,explanation_1.started,text_explanation_1.started,key_resp.started,explanation_1.stopped,key_resp.keys,key_resp.rt,key_resp.duration,task1.started,key_replay1.started,text_recording1.started,sound1.started,text_recording1.stopped,text_recording2.started,sound2.started,text_recording2.stopped,sound2.stopped,text_recording3.started,sound3.started,key_resp_question1.started,text_recording3.stopped,text_question1.started,task1.stopped,key_resp_question1.keys,key_resp_question1.rt,key_resp_question1.duration,key_replay1.keys,replay_count,sound1.stopped,sound3.stopped,key_replay1.rt,key_replay1.duration,Bye.started,text_6.started,text_6.stopped,Bye.stopped,participant,session,date,expName,psychopyVersion,frameRate,expStart,
,,,,,,,,,,,,,,,,,,,,0.044288599980063736,0.06137649994343519,0.06137649994343519,8.370354000013322,space,8.299091900000349,None,,,,,,,,,,,,,,,,,,,,,,,,,,,,,,,,,,,,,,,,,,,,,,,,,,,,,,,,,,,,,,,,,,,,,,,,,,,,,,,,,,,,,,,,,,,,,,,,Paul,001,2024-02-04_22h01.37.808,M2_experiment1,2023.2.3,60.12274663829117,2024-02-04 22h02.53.337998 +0100,
,,,,,,,,,,,,,,,,,,,,,,,,,,,8.370394099969417,8.385708999936469,8.385708999936469,18.733862199936993,space,10.33595650002826,None,,,,,,,,,,,,,,,,,,,,,,,,,,,,,,,,,,,,,,,,,,,,,,,,,,,,,,,,,,,,,,,,,,,,,,,,,,,,,,,,,,,,,,,,,Paul,001,2024-02-04_22h01.37.808,M2_experiment1,2023.2.3,60.12274663829117,2024-02-04 22h02.53.337998 +0100,
,,,,,,,,,,,,,,,,,,,,,,,,,,,,,,,,,,18.73389929998666,18.75008110003546,18.75008110003546,36.37797060003504,space,17.615013800095767,None,,,,,,,,,,,,,,,,,,,,,,,,,,,,,,,,,,,,,,,,,,,,,,,,,,,,,,,,,,,,,,,,,,,,,,,,,,,,,,,,,,Paul,001,2024-02-04_22h01.37.808,M2_experiment1,2023.2.3,60.12274663829117,2024-02-04 22h02.53.337998 +0100,
,,,,,,,,,,,,,,,,,,,,,,,,,,,,,,,,,,,,,,,,,36.378007799969055,36.39349259994924,37.3935644000303,37.377594199962914,37.37761450000107,37.3935644000303,37.3935644000303,43.859163900022395,space,6.449870400014333,None,,,,,,,,,,,,,,,,,,,,,,,,,,,,,,,,,,,,,,,,,,,,,,,,,,,,,,,,,,,,,,,,,,,,,,,Paul,001,2024-02-04_22h01.37.808,M2_experiment1,2023.2.3,60.12274663829117,2024-02-04 22h02.53.337998 +0100,
,,,,,,,,,,,,,,,,,,,,,,,,,,,,,,,,,,,,,,,,,,,,,,,,,,,,43.85920119995717,43.88790820003487,44.874393600039184,44.87453568994533,54.9722529000137,space,10.081353900022805,None,,,,,,,,,,,,,,,,,,,,,,,,,,,,,,,,,,,,,,,,,,,,,,,,,,,,,,,,,,,,,,,Paul,001,2024-02-04_22h01.37.808,M2_experiment1,2023.2.3,60.12274663829117,2024-02-04 22h02.53.337998 +0100,
,,,,,,,,,,,,,,,,,,,,,,,,,,,,,,,,,,,,,,,,,,,,,,,,,,,,,,,,,,,,54.98350960004609,54.9960657999618,54.9960657999618,84.77888660004828,space,29.777492600027472,None,,,,,,,,,,,,,,,,,,,,,,,,,,,,,,,,,,,,,,,,,,,,,,,,,,,,,,,,Paul,001,2024-02-04_22h01.37.808,M2_experiment1,2023.2.3,60.12274663829117,2024-02-04 22h02.53.337998 +0100,
52,NotModifiedSH,resources/new_sounds_not_modified/M4swoosh.wav,0.736227123531279,None,None,None,None,e,M,0,0,0,28,,,,,84.87664519995451,,,,,,,,,,,,,,,,,,,,,,,,,,,,,,,,,,,,,,,,,,,,,,,,,84.85695349995513,84.87664519995451,85.29421119997278,0.5153872000519186,86.02745579998009,86.05990200000815,86.52710109995678,92.20996510004625,r,6.165558199980296,None,None,,,,,,,,,,,,,,,,,,,,,,,,,,,,,,,,,,,,,,,,,,,,Paul,001,2024-02-04_22h01.37.808,M2_experiment1,2023.2.3,60.12274663829117,2024-02-04 22h02.53.337998 +0100,
42,NotModifiedT,resources/new_sounds_not_modified/F4feat.wav,0.478604920503187,None,None,None,None,e,F,0,1,1,18,,,,,92.23054340004455,,,,,,,,,,,,,,,,,,,,,,,,,,,,,,,,,,,,,,,,,,,,,,,,,92.21110059996136,92.23054340004455,92.72495890001301,0.5142414000583813,93.19153459998779,93.20820440002717,93.69138770003337,95.17585749994032,r,1.980993299977854,None,None,0.9974935000063851,,,,,,,,,,,,,,,,,,,,,,,,,,,,,,,,,,,,,,,,,,,Paul,001,2024-02-04_22h01.37.808,M2_experiment1,2023.2.3,60.12274663829117,2024-02-04 22h02.53.337998 +0100,
38,ModifiedT,resources/new_sounds_2/M7butter.wav,0.44172335600907,None,None,None,None,r,M,0,2,2,14,,,,,95.19685209996533,,,,,,,,,,,,,,,,,,,,,,,,,,,,,,,,,,,,,,,,,,,,,,,,,95.17664329998661,95.19685209996533,95.69062380003743,0.5143508999608457,96.12387769995257,96.14045549998991,96.62364570004866,97.62493900000118,e,1.4854774000123143,None,None,0.9641783999977633,,,,,,,,,,,,,,,,,,,,,,,,,,,,,,,,,,,,,,,,,,,Paul,001,2024-02-04_22h01.37.808,M2_experiment1,2023.2.3,60.12274663829117,2024-02-04 22h02.53.337998 +0100,
26,ModifiedSH,resources/new_sounds_2/F2fleshing.wav,0.620294784580499,None,None,None,None,r,F,0,3,3,2,,,,,97.64571609999985,,,,,,,,,,,,,,,,,,,,,,,,,,,,,,,,,,,,,,,,,,,,,,,,,97.62570930004586,97.64571609999985,98.14024019998033,0.5148983000544831,98.75644349993672,98.77289689995814,99.25620339997113,101.07363759994041,r,2.302520400029607,None,None,1.1475449999561533,,,,,,,,,,,,,,,,,,,,,,,,,,,,,,,,,,,,,,,,,,,Paul,001,2024-02-04_22h01.37.808,M2_experiment1,2023.2.3,60.12274663829117,2024-02-04 22h02.53.337998 +0100,
53,NotModifiedSH,resources/new_sounds_not_modified/M6fresher.wav,0.558439616650624,None,None,None,None,e,M,0,4,4,29,,,,,101.0941787000047,,,,,,,,,,,,,,,,,,,,,,,,,,,,,,,,,,,,,,,,,,,,,,,,,101.07442369998898,101.0941787000047,101.5886487000389,0.5145911999279633,102.13849249994382,102.15526639996096,102.63842019997537,102.84001949999947,e,0.6866522999480367,None,None,1.0812254999764264,,,,,,,,,,,,,,,,,,,,,,,,,,,,,,,,,,,,,,,,,,,Paul,001,2024-02-04_22h01.37.808,M2_experiment1,2023.2.3,60.12274663829117,2024-02-04 22h02.53.337998 +0100,
46,NotModifiedT,resources/new_sounds_not_modified/M6pet.wav,0.506976177381986,None,None,None,None,e,M,0,5,5,22,,,,,102.86193539993837,,,,,,,,,,,,,,,,,,,,,,,,,,,,,,,,,,,,,,,,,,,,,,,,,102.84079389995895,102.86193539993837,103.35465540003497,0.5142344000050798,103.85458689997904,103.89076370000839,104.35447819996625,104.9725511999568,e,1.1085120999487117,None,None,,,,,,,,,,,,,,,,,,,,,,,,,,,,,,,,,,,,,,,,,,,,Paul,001,2024-02-04_22h01.37.808,M2_experiment1,2023.2.3,60.12274663829117,2024-02-04 22h02.53.337998 +0100,
37,ModifiedT,resources/new_sounds_2/F4lot.wav,0.449274376417234,None,None,None,None,r,F,0,6,6,13,,,,,104.99336219998077,,,,,,,,,,,,,,,,,,,,,,,,,,,,,,,,,,,,,,,,,,,,,,,,,104.97346639994066,104.99336219998077,105.48749319999479,0.5144027000060305,105.93717039993498,105.93717039993498,106.43722089997027,107.27182679995894,e,1.3179623999167234,None,None,0.9645035000285134,,,,,,,,,,,,,,,,,,,,,,,,,,,,,,,,,,,,,,,,,,,Paul,001,2024-02-04_22h01.37.808,M2_experiment1,2023.2.3,60.12274663829117,2024-02-04 22h02.53.337998 +0100,
50,NotModifiedSH,resources/new_sounds_not_modified/M3dish.wav,0.409302075267592,None,None,None,None,e,M,0,7,7,26,,,,,107.2923777999822,,,,,,,,,,,,,,,,,,,,,,,,,,,,,,,,,,,,,,,,,,,,,,,,,107.27263859997038,107.2923777999822,107.78661039995495,0.5143580000149086,108.1864523999393,108.22336579998955,108.6863351999782,108.92145929997787,e,0.732017100090161,None,None,,,,,,,,,,,,,,,,,,,,,,,,,,,,,,,,,,,,,,,,,,,,Paul,001,2024-02-04_22h01.37.808,M2_experiment1,2023.2.3,60.12274663829117,2024-02-04 22h02.53.337998 +0100,
27,ModifiedSH,resources/new_sounds_2/M4flesh.wav,0.722767978649223,None,None,None,None,r,M,0,8,8,3,,,,,108.94277990004048,,,,,,,,,,,,,,,,,,,,,,,,,,,,,,,,,,,,,,,,,,,,,,,,,108.92217999999411,108.94277990004048,109.43605250003748,0.514229999971576,110.15252290002536,110.16922020004131,110.65220719994977,111.02040050004143,r,0.8598836999153718,None,None,,,,,,,,,,,,,,,,,,,,,,,,,,,,,,,,,,,,,,,,,,,,Paul,001,2024-02-04_22h01.37.808,M2_experiment1,2023.2.3,60.12274663829117,2024-02-04 22h02.53.337998 +0100,
49,NotModifiedT,resources/new_sounds_not_modified/M2lot.wav,0.466575772426751,None,None,None,None,e,M,0,9,9,25,,,,,111.04098890000023,,,,,,,,,,,,,,,,,,,,,,,,,,,,,,,,,,,,,,,,,,,,,,,,,111.02116829995066,111.04098890000023,111.53550630004611,0.5147045999765396,112.0018441999564,112.0018441999564,112.50172499998007,113.1530286000343,e,1.1386871000286192,None,None,0.9814843999920413,,,,,,,,,,,,,,,,,,,,,,,,,,,,,,,,,,,,,,,,,,,Paul,001,2024-02-04_22h01.37.808,M2_experiment1,2023.2.3,60.12274663829117,2024-02-04 22h02.53.337998 +0100,
39,ModifiedSH,resources/new_sounds_2/M7fresher.wav,0.497256235827664,None,None,None,None,r,M,0,10,10,15,,,,,113.17346189997625,,,,,,,,,,,,,,,,,,,,,,,,,,,,,,,,,,,,,,,,,,,,,,,,,113.1538203000091,113.17346189997625,113.66787100001238,0.5144224000396207,114.15113310003653,114.1677051000297,114.65101110003889,115.48565919999965,r,1.322301600011997,None,None,1.0142522000242025,,,,,,,,,,,,,,,,,,,,,,,,,,,,,,,,,,,,,,,,,,,Paul,001,2024-02-04_22h01.37.808,M2_experiment1,2023.2.3,60.12274663829117,2024-02-04 22h02.53.337998 +0100,
40,ModifiedSH,resources/new_sounds_2/F5fresher.wav,0.567437641723356,None,None,None,None,r,F,0,11,11,16,,,,,115.5067969999509,,,,,,,,,,,,,,,,,,,,,,,,,,,,,,,,,,,,,,,,,,,,,,,,,115.48656929994468,115.5067969999509,116.00048399996012,0.5144205000251532,116.58072820003144,116.58072820003144,117.06681929994375,117.58502220001537,r,0.9987266000825912,None,None,,,,,,,,,,,,,,,,,,,,,,,,,,,,,,,,,,,,,,,,,,,,Paul,001,2024-02-04_22h01.37.808,M2_experiment1,2023.2.3,60.12274663829117,2024-02-04 22h02.53.337998 +0100,
47,ModifiedT,resources/new_sounds_2/M6root.wav,0.557210884353742,None,None,None,None,r,M,0,12,12,23,,,,,117.60628169996198,,,,,,,,,,,,,,,,,,,,,,,,,,,,,,,,,,,,,,,,,,,,,,,,,117.58582299994305,117.60628169996198,118.09979200002272,0.5143388999858871,118.64957370003685,118.66626209998503,119.1494265999645,119.45101580000482,e,0.7893976999912411,None,None,1.0808042000280693,,,,,,,,,,,,,,,,,,,,,,,,,,,,,,,,,,,,,,,,,,,Paul,001,2024-02-04_22h01.37.808,M2_experiment1,2023.2.3,60.12274663829117,2024-02-04 22h02.53.337998 +0100,
25,ModifiedSH,resources/new_sounds_2/F1swoosh.wav,0.770486715748874,None,None,None,None,r,F,0,13,13,1,,,,,119.47201260004658,,,,,,,,,,,,,,,,,,,,,,,,,,,,,,,,,,,,,,,,,,,,,,,,,119.45181420003064,119.47201260004658,119.96599049994256,0.5145603000419214,120.73238349996973,120.74888219998684,121.23200850002468,122.64987620001193,e,1.9012220000149682,None,None,,,,,,,,,,,,,,,,,,,,,,,,,,,,,,,,,,,,,,,,,,,,Paul,001,2024-02-04_22h01.37.808,M2_experiment1,2023.2.3,60.12274663829117,2024-02-04 22h02.53.337998 +0100,
30,ModifiedT,resources/new_sounds_2/F3footer.wav,0.597777777777778,None,None,None,None,r,F,0,14,14,6,,,,,122.67089730000589,,,,,,,,,,,,,,,,,,,,,,,,,,,,,,,,,,,,,,,,,,,,,,,,,122.65065039996989,122.67089730000589,123.16509829997085,0.5148752999957651,123.74791939998977,123.76468859997112,124.24766879994422,124.78256830002647,r,1.0212213000049815,None,None,1.1144042999949306,,,,,,,,,,,,,,,,,,,,,,,,,,,,,,,,,,,,,,,,,,,Paul,001,2024-02-04_22h01.37.808,M2_experiment1,2023.2.3,60.12274663829117,2024-02-04 22h02.53.337998 +0100,
31,NotModifiedT,resources/new_sounds_not_modified/F3footer.wav,0.573733808005514,None,None,None,None,e,F,0,15,15,7,,,,,124.80587339994963,,,,,,,,,,,,,,,,,,,,,,,,,,,,,,,,,,,,,,,,,,,,,,,,,124.7833567999769,124.80587339994963,125.2974803999532,0.5145050999708474,125.86382089997642,125.88050379999913,126.36377019993961,126.66540820000228,r,0.7964189000194892,None,None,1.0975047999527305,,,,,,,,,,,,,,,,,,,,,,,,,,,,,,,,,,,,,,,,,,,Paul,001,2024-02-04_22h01.37.808,M2_experiment1,2023.2.3,60.12274663829117,2024-02-04 22h02.53.337998 +0100,
44,ModifiedSH,resources/new_sounds_2/F2thrasher.wav,0.510249433106576,None,None,None,None,r,F,0,16,16,20,,,,,126.6937515999889,,,,,,,,,,,,,,,,,,,,,,,,,,,,,,,,,,,,,,,,,,,,,,,,,126.66618629998993,126.6937515999889,127.18011249997653,0.5143110998906195,127.67985590000171,127.69647189998068,128.1798288000282,128.54785049997736,r,0.8597638999344781,None,None,1.0306604999350384,,,,,,,,,,,,,,,,,,,,,,,,,,,,,,,,,,,,,,,,,,,Paul,001,2024-02-04_22h01.37.808,M2_experiment1,2023.2.3,60.12274663829117,2024-02-04 22h02.53.337998 +0100,
32,ModifiedT,resources/new_sounds_2/M2city.wav,0.658866213151928,None,None,None,None,r,M,0,17,17,8,,,,,128.5692608000245,,,,,,,,,,,,,,,,,,,,,,,,,,,,,,,,,,,,,,,,,,,,,,,,,128.54864589998033,128.5692608000245,129.0629097999772,0.5146303999936208,129.71277129999362,129.7293653000379,130.21241969999392,130.51398459996562,r,0.7890263999579474,None,None,1.1810822000261396,,,,,,,,,,,,,,,,,,,,,,,,,,,,,,,,,,,,,,,,,,,Paul,001,2024-02-04_22h01.37.808,M2_experiment1,2023.2.3,60.12274663829117,2024-02-04 22h02.53.337998 +0100,
43,NotModifiedT,resources/new_sounds_not_modified/F2feat.wav,0.644364234737267,None,None,None,None,e,F,0,18,18,19,,,,,130.53503679996356,,,,,,,,,,,,,,,,,,,,,,,,,,,,,,,,,,,,,,,,,,,,,,,,,130.51476489997003,130.53503679996356,131.02898960001767,0.5146064999280497,131.66197240003385,131.67867880000267,132.16203380003572,132.31325839995407,e,0.6428893000120297,None,None,1.164297999930568,,,,,,,,,,,,,,,,,,,,,,,,,,,,,,,,,,,,,,,,,,,Paul,001,2024-02-04_22h01.37.808,M2_experiment1,2023.2.3,60.12274663829117,2024-02-04 22h02.53.337998 +0100,
33,ModifiedT,resources/new_sounds_2/M7fatter.wav,0.644739229024943,None,None,None,None,r,M,0,19,19,9,,,,,132.3337223000126,,,,,,,,,,,,,,,,,,,,,,,,,,,,,,,,,,,,,,,,,,,,,,,,,132.31397080002353,132.3337223000126,132.82823989994358,0.5146252999547869,133.46126500004902,133.47793029993773,133.96155400003772,134.1629708999535,r,0.6847160999896005,None,None,1.1643088000128046,,,,,,,,,,,,,,,,,,,,,,,,,,,,,,,,,,,,,,,,,,,Paul,001,2024-02-04_22h01.37.808,M2_experiment1,2023.2.3,60.12274663829117,2024-02-04 22h02.53.337998 +0100,
34,ModifiedSH,resources/new_sounds_2/M7mosh.wav,0.486031746031746,None,None,None,None,r,M,0,20,20,10,,,,,134.18363680003677,,,,,,,,,,,,,,,,,,,,,,,,,,,,,,,,,,,,,,,,,,,,,,,,,134.16376949998084,134.18363680003677,134.6776013999479,0.5142568999435753,135.1607380999485,135.18899379996583,135.66075549996458,136.16193489998113,r,0.9896101000485942,None,None,1.025620299973525,,,,,,,,,,,,,,,,,,,,,,,,,,,,,,,,,,,,,,,,,,,Paul,001,2024-02-04_22h01.37.808,M2_experiment1,2023.2.3,60.12274663829117,2024-02-04 22h02.53.337998 +0100,
48,ModifiedT,resources/new_sounds_2/M3lottery.wav,0.649773242630385,None,None,None,None,r,M,0,21,21,24,,,,,136.18299729994033,,,,,,,,,,,,,,,,,,,,,,,,,,,,,,,,,,,,,,,,,,,,,,,,,136.1627144999802,136.18299729994033,136.67685299995355,0.5144999000476673,137.32662659999914,137.32662659999914,137.82671659998596,138.04491840000264,e,0.7153698999900371,None,None,1.1647249000379816,,,,,,,,,,,,,,,,,,,,,,,,,,,,,,,,,,,,,,,,,,,Paul,001,2024-02-04_22h01.37.808,M2_experiment1,2023.2.3,60.12274663829117,2024-02-04 22h02.53.337998 +0100,
41,ModifiedT,resources/new_sounds_2/F4utter.wav,0.53952380952381,None,None,None,None,r,F,0,22,22,17,,,,,138.06617589993402,,,,,,,,,,,,,,,,,,,,,,,,,,,,,,,,,,,,,,,,,,,,,,,,,138.0456885000458,138.06617589993402,138.55983909999486,0.5145302000455558,139.09290509996936,139.12394479999784,139.5927843999816,139.72764669999015,e,0.6322269000811502,None,None,,,,,,,,,,,,,,,,,,,,,,,,,,,,,,,,,,,,,,,,,,,,Paul,001,2024-02-04_22h01.37.808,M2_experiment1,2023.2.3,60.12274663829117,2024-02-04 22h02.53.337998 +0100,
36,NotModifiedT,resources/new_sounds_not_modified/F4lot.wav,0.386965569882676,None,None,None,None,e,F,0,23,23,12,,,,,139.74808859999757,,,,,,,,,,,,,,,,,,,,,,,,,,,,,,,,,,,,,,,,,,,,,,,,,139.72844660002738,139.74808859999757,140.24242379993666,0.5143418000079691,140.62571679998655,140.64225629996508,141.1255969000049,141.96025260002352,e,1.3173980000428855,None,None,0.9141713000135496,,,,,,,,,,,,,,,,,,,,,,,,,,,,,,,,,,,,,,,,,,,Paul,001,2024-02-04_22h01.37.808,M2_experiment1,2023.2.3,60.12274663829117,2024-02-04 22h02.53.337998 +0100,
54,NotModifiedSH,resources/new_sounds_not_modified/F5thrasher.wav,0.585496600933162,None,None,None,None,e,F,0,24,24,30,,,,,141.98118300002534,,,,,,,,,,,,,,,,,,,,,,,,,,,,,,,,,,,,,,,,,,,,,,,,,141.96108000003733,141.98118300002534,142.47491969994735,0.5142770000966266,143.05806349997874,143.08984439994674,143.55810160003603,143.90952380001545,r,0.8465810000197962,None,None,,,,,,,,,,,,,,,,,,,,,,,,,,,,,,,,,,,,,,,,,,,,Paul,001,2024-02-04_22h01.37.808,M2_experiment1,2023.2.3,60.12274663829117,2024-02-04 22h02.53.337998 +0100,
45,NotModifiedSH,resources/new_sounds_not_modified/F3mosh.wav,0.628649263052651,None,None,None,None,e,F,0,25,25,21,,,,,143.9308713999344,,,,,,,,,,,,,,,,,,,,,,,,,,,,,,,,,,,,,,,,,,,,,,,,,143.91028529999312,143.9308713999344,144.42452110000886,0.5145937000634149,145.04097440000623,145.0575966000324,145.54074750002474,146.24216000002343,e,1.1871092999354005,None,None,1.1476631000405177,,,,,,,,,,,,,,,,,,,,,,,,,,,,,,,,,,,,,,,,,,,Paul,001,2024-02-04_22h01.37.808,M2_experiment1,2023.2.3,60.12274663829117,2024-02-04 22h02.53.337998 +0100,
51,NotModifiedSH,resources/new_sounds_not_modified/M4mosh.wav,0.573267020202984,None,None,None,None,e,M,0,26,26,27,,,,,146.26371339999605,,,,,,,,,,,,,,,,,,,,,,,,,,,,,,,,,,,,,,,,,,,,,,,,,146.24294649995863,146.26371339999605,146.75718359998427,0.5146187000209466,147.32350399997085,147.34007719997317,147.82341419998556,148.0581640000455,r,0.718445000005886,None,None,1.097503799945116,,,,,,,,,,,,,,,,,,,,,,,,,,,,,,,,,,,,,,,,,,,Paul,001,2024-02-04_22h01.37.808,M2_experiment1,2023.2.3,60.12274663829117,2024-02-04 22h02.53.337998 +0100,
28,ModifiedSH,resources/new_sounds_2/F3flushing.wav,0.687845804988662,None,None,None,None,r,F,0,27,27,4,,,,,148.0790845999727,,,,,,,,,,,,,,,,,,,,,,,,,,,,,,,,,,,,,,,,,,,,,,,,,148.05896249995567,148.0790845999727,148.57308030000422,0.5144780001137406,149.2562873000279,149.2727603999665,149.75604649994057,150.1409326000139,r,0.8795539999846369,None,None,1.2141584000783041,,,,,,,,,,,,,,,,,,,,,,,,,,,,,,,,,,,,,,,,,,,Paul,001,2024-02-04_22h01.37.808,M2_experiment1,2023.2.3,60.12274663829117,2024-02-04 22h02.53.337998 +0100,
29,NotModifiedT,resources/new_sounds_2/M4getting.wav,0.612123590008089,None,None,None,None,e,M,0,28,28,5,,,,,150.16239379998296,,,,,,,,,,,,,,,,,,,,,,,,,,,,,,,,,,,,,,,,,,,,,,,,,150.14172439998947,150.16239379998296,150.65565890003927,0.5143195999553427,151.25539579999167,151.27218379999977,151.75517549994402,152.3567126999842,e,1.087587199988775,None,None,1.13084080000408,,,,,,,,,,,,,,,,,,,,,,,,,,,,,,,,,,,,,,,,,,,Paul,001,2024-02-04_22h01.37.808,M2_experiment1,2023.2.3,60.12274663829117,2024-02-04 22h02.53.337998 +0100,
35,NotModifiedSH,resources/new_sounds_not_modified/M7mosh.wav,0.618134342110551,None,None,None,None,e,M,0,29,29,11,,,,,152.37799519998953,,,,,,,,,,,,,,,,,,,,,,,,,,,,,,,,,,,,,,,,,,,,,,,,,152.35756799997762,152.37799519998953,152.8716341999825,0.5144722999539226,153.48811060003936,153.5046229000436,153.98790900001768,154.18940230004955,r,0.6923511999193579,None,None,1.147451400058344,,,,,,,,,,,,,,,,,,,,,,,,,,,,,,,,,,,,,,,,,,,Paul,001,2024-02-04_22h01.37.808,M2_experiment1,2023.2.3,60.12274663829117,2024-02-04 22h02.53.337998 +0100,
24,NotModifiedT,resources/new_sounds_not_modified/F1party.wav,0.63399526438517,None,None,None,None,e,F,0,30,30,0,,,,,154.21009890001733,,,,,,,,,,,,,,,,,,,,,,,,,,,,,,,,,,,,,,,,,,,,,,,,,154.19018849998247,154.21009890001733,154.7042580000125,0.5144520000321791,155.3374666000018,155.3374666000018,155.83734450000338,156.2055462000426,e,0.8561736999545246,None,None,1.1480904000345618,,,,,,,,,,,,,,,,,,,,,,,,,,,,,,,,,,,,,,,,,,,Paul,001,2024-02-04_22h01.37.808,M2_experiment1,2023.2.3,60.12274663829117,2024-02-04 22h02.53.337998 +0100,
,,,,,,,,,,,,,,,,,,,,,,,,,,,,,,,,,,,,,,,,,,,,,,,,,,,,,,,,,,,,,,,,,,,,,,,,,,,,,,,,156.20610249997117,156.22209289995953,156.22209289995953,179.13034949998837,space,22.895924699958414,None,,,,,,,,,,,,,,,,,,,,,,,,,,,,,,,,,,,,Paul,001,2024-02-04_22h01.37.808,M2_experiment1,2023.2.3,60.12274663829117,2024-02-04 22h02.53.337998 +0100,
,,,,,,,,,,,,,,,,,,,,,,,,,,,,,,,,,,,,,,,,,,,,,,,,,,,,,,,,,,,,,,,,,,,,,,,,,,,,,,,,,,,,,,,179.1303925999673,179.14688549994025,179.14688549994025,212.76901010004804,space,33.620043299975805,None,,,,,,,,,,,,,,,,,,,,,,,,,,,,,Paul,001,2024-02-04_22h01.37.808,M2_experiment1,2023.2.3,60.12274663829117,2024-02-04 22h02.53.337998 +0100,
8,ModifiedSH,resources/new_sounds_not_modified/M3bot.wav,0.368685295497059,resources/new_sounds_not_modified/M1bosh.wav,0.5055628425466665,resources/new_sounds_2/M5bosh.wav,0.4857823129251701,2,M,,,,,0,0,0,7,212.8418574000243,,,,,,,,,,,,,,,,,,,,,,,,,,,,,,,,,,,,,,,,,,,,,,,,,,,,,,,,,,,,,,,,,,,,,,,,,,,,212.7990681999363,212.8418574000243,213.28449490002822,0.5155447999713942,213.68242850003298,214.15089429996442,214.15086628997233,214.6710185999982,214.6710185999982,215.15056670003105,215.15046938997693,215.6511892999988,215.66712769994047,216.13367000001017,216.73519959999248,t,1.066105299978517,None,None,0,,,,,,,,,Paul,001,2024-02-04_22h01.37.808,M2_experiment1,2023.2.3,60.12274663829117,2024-02-04 22h02.53.337998 +0100,
1,ModifiedT,resources/new_sounds_not_modified/F2fit.wav,0.374261916532496,resources/new_sounds_not_modified/F5fish.wav,0.478583202882902,resources/new_sounds_2/F4fit.wav,0.41736473916697,1,F,,,,,0,1,1,0,216.77298170002177,,,,,,,,,,,,,,,,,,,,,,,,,,,,,,,,,,,,,,,,,,,,,,,,,,,,,,,,,,,,,,,,,,,,,,,,,,,,216.73646329995245,216.77298170002177,217.2498558999505,0.513761300011538,217.64842830004636,218.1161442999728,218.1162474900484,218.61294220003765,218.61294220003765,219.09918639995158,219.09915968996938,219.51559199998155,219.51559199998155,220.01576620002743,221.00063769996632,t,1.4740965999662876,None,None,0,,,,,,,,,Paul,001,2024-02-04_22h01.37.808,M2_experiment1,2023.2.3,60.12274663829117,2024-02-04 22h02.53.337998 +0100,
13,ModifiedT,resources/new_sounds_not_modified/F1fish.wav,0.519196656146427,resources/new_sounds_not_modified/F4fit.wav,0.297524783699501,resources/new_sounds_2/F2fit.wav,0.443741496598639,2,F,,,,,0,2,2,12,221.03701239998918,,,,,,,,,,,,,,,,,,,,,,,,,,,,,,,,,,,,,,,,,,,,,,,,,,,,,,,,,,,,,,,,,,,,,,,,,,,,221.00142129999585,221.03701239998918,221.51511459995527,0.5140645999927074,222.04818279994652,222.5314513000194,222.5313422899926,222.84094779996667,222.84094779996667,223.33192319993395,223.3316122899996,223.76437899994198,223.78724249999505,224.2640851000324,224.78270840004552,t,1.010481100063771,None,None,0,1.0471269999397919,223.78724249999505,,,,,,,Paul,001,2024-02-04_22h01.37.808,M2_experiment1,2023.2.3,60.12274663829117,2024-02-04 22h02.53.337998 +0100,
22,ModifiedSH,resources/new_sounds_not_modified/F1mash.wav,0.601753675244161,resources/new_sounds_2/F3mash.wav,0.42437641723356,resources/new_sounds_not_modified/F4mat.wav,0.401181209050264,3,F,,,,,0,3,3,21,224.8223571999697,,,,,,,,,,,,,,,,,,,,,,,,,,,,,,,,,,,,,,,,,,,,,,,,,,,,,,,,,,,,,,,,,,,,,,,,,,,,224.7834589999402,224.8223571999697,225.29704099998344,0.5139369000680745,225.91370499995537,226.3967244999949,226.39672378997784,226.83327149995603,226.83327149995603,227.31323940004222,227.31325898994692,227.72612380003557,227.7462988999905,228.2127666999586,229.18117160000838,t,1.4473957000300288,None,None,0,1.1306009000400081,,,,,,,,Paul,001,2024-02-04_22h01.37.808,M2_experiment1,2023.2.3,60.12274663829117,2024-02-04 22h02.53.337998 +0100,
3,ModifiedT,resources/new_sounds_2/F5mat.wav,0.565396825396825,resources/new_sounds_not_modified/F4mash.wav,0.38066522534541036,resources/new_sounds_not_modified/F2mat.wav,0.5007174554648515,3,F,,,,,0,4,4,2,229.2199651999399,,,,,,,,,,,,,,,,,,,,,,,,,,,,,,,,,,,,,,,,,,,,,,,,,,,,,,,,,,,,,,,,,,,,,,,,,,,,229.18198250001296,229.2199651999399,229.69564940000419,0.5140380000229925,230.26209460000973,230.76213229994755,230.7619916900294,231.15390269993804,278.71017540001776,231.62831589998677,231.6283035899978,232.13370709994342,232.13370709994342,232.62796670000535,281.17768670001533,e,49.02749960008077,None,p,2,49.512643499998376,278.71017540001776,46.39047970005777,None,,,,,Paul,001,2024-02-04_22h01.37.808,M2_experiment1,2023.2.3,60.12274663829117,2024-02-04 22h02.53.337998 +0100,
17,ModifiedT,resources/new_sounds_2/M2bosh.wav,0.387165532879819,resources/new_sounds_not_modified/M6bot.wav,0.501070841911371,resources/new_sounds_not_modified/M5bosh.wav,0.597358038485993,2,M,,,,,0,5,5,16,281.21739909995813,,,,,,,,,,,,,,,,,,,,,,,,,,,,,,,,,,,,,,,,,,,,,,,,,,,,,,,,,,,,,,,,,,,,,,,,,,,,281.1788613999961,281.21739909995813,281.6930922999745,0.5146278999745846,282.09260219999123,282.5757307000458,282.57631349004805,283.0920487999683,283.0920487999683,283.57588380004745,283.5757021900499,284.18236700003035,284.18236700003035,284.6749688000418,285.5439647999592,t,1.3571058000670746,None,None,0,0.9141064999857917,284.18236700003035,,,,,,,Paul,001,2024-02-04_22h01.37.808,M2_experiment1,2023.2.3,60.12274663829117,2024-02-04 22h02.53.337998 +0100,
21,ModifiedSH,resources/new_sounds_not_modified/F5fish.wav,0.478583202882902,resources/new_sounds_2/F4fish.wav,0.366258503401361,resources/new_sounds_not_modified/F2fit.wav,0.374261916532497,3,F,,,,,0,6,6,20,285.56530679995194,,,,,,,,,,,,,,,,,,,,,,,,,,,,,,,,,,,,,,,,,,,,,,,,,,,,,,,,,,,,,,,,,,,,,,,,,,,,285.5449111999478,285.56530679995194,286.0589447999373,0.5144724999554455,286.5419025999727,287.0256999999983,287.0253082900308,287.4015325999353,287.4015325999353,287.8927920999704,287.89278879004996,288.27919499995187,288.27919499995187,288.7759453000035,291.4934049999574,r,3.197177099995315,None,None,0,0.9973980999784544,288.27919499995187,,,,,,,Paul,001,2024-02-04_22h01.37.808,M2_experiment1,2023.2.3,60.12274663829117,2024-02-04 22h02.53.337998 +0100,
7,ModifiedSH,resources/new_sounds_2/M1bosh.wav,0.4574829931972789,resources/new_sounds_not_modified/M2bot.wav,0.415863975908209,resources/new_sounds_not_modified/M4bosh.wav,0.4533657452807347,3,M,,,,,0,7,7,6,291.5333043000428,,,,,,,,,,,,,,,,,,,,,,,,,,,,,,,,,,,,,,,,,,,,,,,,,,,,,,,,,,,,,,,,,,,,,,,,,,,,291.4941940000281,291.5333043000428,292.00803979998454,0.5142191000049934,292.474645899958,292.9577280000085,292.9579504899448,293.3898315000115,293.3898315000115,293.874052500003,293.8741818900453,294.3238922000164,294.3476771999849,294.82375630002934,297.0917867999524,t,2.75829100003466,None,None,0,0.9808256999822333,294.3476771999849,,,,,,,Paul,001,2024-02-04_22h01.37.808,M2_experiment1,2023.2.3,60.12274663829117,2024-02-04 22h02.53.337998 +0100,
12,ModifiedSH,resources/new_sounds_not_modified/F4bot.wav,0.390471530438234,resources/new_sounds_not_modified/F3bosh.wav,0.505513996768869,resources/new_sounds_2/F2bosh.wav,0.423673469387755,2,F,,,,,0,8,8,11,297.1285031000152,,,,,,,,,,,,,,,,,,,,,,,,,,,,,,,,,,,,,,,,,,,,,,,,,,,,,,,,,,,,,,,,,,,,,,,,,,,,297.09259929996915,297.1285031000152,297.60616149997804,0.5139314000261948,298.006050499971,298.4891730999807,298.4892069899943,299.01005989999976,299.01005989999976,299.4889319000067,299.48892269004136,299.9280812999932,299.9280812999932,300.4219529000111,304.07265069999266,r,4.134958300041035,None,None,0,0.9138162999879569,299.9280812999932,,,,,,,Paul,001,2024-02-04_22h01.37.808,M2_experiment1,2023.2.3,60.12274663829117,2024-02-04 22h02.53.337998 +0100,
18,ModifiedT,resources/new_sounds_2/M2put.wav,0.532199546485261,resources/new_sounds_not_modified/M7put.wav,0.410382098763918,resources/new_sounds_not_modified/M5push.wav,0.499025816019625,2,M,,,,,0,9,9,17,304.11216419993434,,,,,,,,,,,,,,,,,,,,,,,,,,,,,,,,,,,,,,,,,,,,,,,,,,,,,,,,,,,,,,,,,,,,,,,,,,,,304.0734522000421,304.11216419993434,304.5872315999586,0.5141550999833271,305.12046210002154,305.6201640999643,305.62050729000475,306.0440679000458,306.0440679000458,306.5197563000256,306.5198057900416,307.0329296999844,307.0329296999844,307.52067050000187,308.9544198999647,t,1.9157856999663636,None,None,0,1.0473953000037,307.0329296999844,,,,,,,Paul,001,2024-02-04_22h01.37.808,M2_experiment1,2023.2.3,60.12274663829117,2024-02-04 22h02.53.337998 +0100,
16,ModifiedT,resources/new_sounds_2/M2fit.wav,0.646553287981859,resources/new_sounds_not_modified/M4fit.wav,0.508424667314028,resources/new_sounds_not_modified/M5fish.wav,0.451129071842058,2,M,,,,,0,10,10,15,308.9932880999986,,,,,,,,,,,,,,,,,,,,,,,,,,,,,,,,,,,,,,,,,,,,,,,,,,,,,,,,,,,,,,,,,,,,,,,,,,,,308.95532770000864,308.9932880999986,309.4690147000365,0.5140925999730825,310.1186336999526,310.60173779993784,310.6018948899582,311.12423610000405,311.12423610000405,311.61822800000664,311.6181469899602,312.0680841000285,312.08769900002517,312.56792429997586,314.3693479000358,r,2.296078799990937,None,None,0,1.1637017999310046,312.08769900002517,,,,,,,Paul,001,2024-02-04_22h01.37.808,M2_experiment1,2023.2.3,60.12274663829117,2024-02-04 22h02.53.337998 +0100,
9,ModifiedSH,resources/new_sounds_not_modified/M4bot.wav,0.453615769026229,resources/new_sounds_not_modified/M3bosh.wav,0.524217377306996,resources/new_sounds_2/M2bosh.wav,0.387165532879819,2,M,,,,,0,11,11,8,314.4024257999845,,,,,,,,,,,,,,,,,,,,,,,,,,,,,,,,,,,,,,,,,,,,,,,,,,,,,,,,,,,,,,,,,,,,,,,,,,,,314.37015680002514,314.4024257999845,314.88376889994834,0.514009700040333,315.35020430001896,315.8334022000199,315.83340309001505,316.36988849996123,330.05993300001137,316.84971900004894,316.84974999004044,317.25287430000026,317.25287430000026,317.7494723999407,331.02805149997585,r,13.762074299971573,None,p,2,15.674020400037989,330.05993300001137,12.63235510000959,None,,,,,Paul,001,2024-02-04_22h01.37.808,M2_experiment1,2023.2.3,60.12274663829117,2024-02-04 22h02.53.337998 +0100,
10,ModifiedT,resources/new_sounds_not_modified/M2fit.wav,0.423218058079414,resources/new_sounds_not_modified/M5fish.wav,0.451129071842058,resources/new_sounds_2/M4fit.wav,0.597210884353741,1,M,,,,,0,12,12,9,331.06089159997646,,,,,,,,,,,,,,,,,,,,,,,,,,,,,,,,,,,,,,,,,,,,,,,,,,,,,,,,,,,,,,,,,,,,,,,,,,,,331.02908200002275,331.06089159997646,331.5427520000376,0.514064299990423,331.9758525999496,332.45889140001964,332.4592487900518,332.9254026999697,332.9254026999697,333.4086394000333,333.40904928999953,334.0155864999397,334.0155864999397,334.5082232999848,336.44271740003023,e,2.4105755001073703,None,None,0,0.947159199975431,334.0155864999397,,,,,,,Paul,001,2024-02-04_22h01.37.808,M2_experiment1,2023.2.3,60.12274663829117,2024-02-04 22h02.53.337998 +0100,
4,ModifiedT,resources/new_sounds_not_modified/M4mat.wav,0.4451593985921889,resources/new_sounds_2/M3mat.wav,0.494308390022676,resources/new_sounds_not_modified/M2mash.wav,0.7358947371573947,1,M,,,,,0,13,13,3,336.4796111000469,,,,,,,,,,,,,,,,,,,,,,,,,,,,,,,,,,,,,,,,,,,,,,,,,,,,,,,,,,,,,,,,,,,,,,,,,,,,336.44350900000427,336.4796111000469,336.957894399995,0.514760399935767,337.4079209000338,337.8913418999873,337.89131719002035,338.3982035999652,338.3982035999652,338.8918464999879,338.89186438999604,339.62544259999413,339.64343329996336,340.12527049996424,341.22704799997155,t,1.5899377999594435,None,None,0,0.9647805999265984,339.64343329996336,,,,,,,Paul,001,2024-02-04_22h01.37.808,M2_experiment1,2023.2.3,60.12274663829117,2024-02-04 22h02.53.337998 +0100,
20,ModifiedSH,resources/new_sounds_2/F2push.wav,0.418027210884354,resources/new_sounds_not_modified/F4push.wav,0.436144678520506,resources/new_sounds_not_modified/F3put.wav,0.437781204290985,2,F,,,,,0,14,14,19,341.265495599946,,,,,,,,,,,,,,,,,,,,,,,,,,,,,,,,,,,,,,,,,,,,,,,,,,,,,,,,,,,,,,,,,,,,,,,,,,,,341.2278462999966,341.265495599946,341.7413052000338,0.5138268999289721,342.17445249995217,342.657689500018,342.65769788995385,343.1108874999918,343.1108874999918,343.59069019998424,343.5906335900072,344.0238940999843,344.04389299999457,344.52388580003753,344.94229559996165,t,0.9114882000721991,None,None,0,0.9469715999439359,344.04389299999457,,,,,,,Paul,001,2024-02-04_22h01.37.808,M2_experiment1,2023.2.3,60.12274663829117,2024-02-04 22h02.53.337998 +0100,
5,ModifiedT,resources/new_sounds_not_modified/F4met.wav,0.44494520825283956,resources/new_sounds_2/F2met.wav,0.634104308390023,resources/new_sounds_not_modified/F1mesh.wav,0.5571319490698841,1,F,,,,,0,15,15,4,344.97917139995843,,,,,,,,,,,,,,,,,,,,,,,,,,,,,,,,,,,,,,,,,,,,,,,,,,,,,,,,,,,,,,,,,,,,,,,,,,,,344.9430891999509,344.97917139995843,345.456759099965,0.5140463999705389,345.90665070002433,346.38973069994245,346.38986389001366,347.0228785999352,347.04143230000045,347.52273179998156,347.5228500900557,348.0929254000075,348.0929254000075,348.58904750004876,350.20728730002884,t,2.1084827999584377,None,None,0,0.9639329999918118,348.0929254000075,,,,,,,Paul,001,2024-02-04_22h01.37.808,M2_experiment1,2023.2.3,60.12274663829117,2024-02-04 22h02.53.337998 +0100,
14,ModifiedSH,resources/new_sounds_not_modified/F2bosh.wav,0.494392229081527,resources/new_sounds_not_modified/F5bot.wav,0.485673207115724,resources/new_sounds_2/F1bosh.wav,0.520634920634921,1,F,,,,,0,16,16,13,350.2450142999878,,,,,,,,,,,,,,,,,,,,,,,,,,,,,,,,,,,,,,,,,,,,,,,,,,,,,,,,,,,,,,,,,,,,,,,,,,,,350.2080672000302,350.2450142999878,350.72183960000984,0.5141473000403494,351.2215922999894,351.70472269994207,351.7047794900136,352.20460349996574,352.20460349996574,352.6876703000162,352.6879902899964,353.22514690004755,353.22514690004755,353.72065130004194,353.90602450002916,r,0.6656038000946864,None,None,0,1.0139192000497133,353.22514690004755,,,,,,,Paul,001,2024-02-04_22h01.37.808,M2_experiment1,2023.2.3,60.12274663829117,2024-02-04 22h02.53.337998 +0100,
2,ModifiedSh,resources/new_sounds_not_modified/F2fish.wav,0.528250066930233,resources/new_sounds_2/F1fit.wav,0.423218058079413,resources/new_sounds_not_modified/F5fit.wav,0.2975247836995,3,F,,,,,0,17,17,1,353.9438596999971,,,,,,,,,,,,,,,,,,,,,,,,,,,,,,,,,,,,,,,,,,,,,,,,,,,,,,,,,,,,,,,,,,,,,,,,,,,,353.906833200017,353.9438596999971,354.4204628999578,0.5140019999817014,354.95368289994076,355.4367404000368,355.43678158998955,355.8843610000331,363.01545489998534,356.36975159996655,356.36980278999545,356.68458560004365,356.68458560004365,357.16961260000244,364.5334943999769,e,7.834591599996202,None,p,1,9.09279299993068,363.01545489998534,5.817675199941732,None,,,,,Paul,001,2024-02-04_22h01.37.808,M2_experiment1,2023.2.3,60.12274663829117,2024-02-04 22h02.53.337998 +0100,
11,ModifiedSH,resources/new_sounds_not_modified/M1fish.wav,0.569506825661794,resources/new_sounds_2/M7fit.wav,0.485691609977324,resources/new_sounds_not_modified/M3fit.wav,0.479334255844424,3,M,,,,,0,18,18,10,364.5700056999922,,,,,,,,,,,,,,,,,,,,,,,,,,,,,,,,,,,,,,,,,,,,,,,,,,,,,,,,,,,,,,,,,,,,,,,,,,,,364.5344436999876,364.5700056999922,365.0479900999926,0.5139041999354959,365.6429815000156,366.11428530002013,366.114505190053,366.6140513999853,366.6140513999853,367.0978659000248,367.0974017899716,367.58637879998423,367.58637879998423,368.08026379998773,368.59875000000466,e,1.0013481000205502,None,None,0,,367.58637879998423,,,,,,,Paul,001,2024-02-04_22h01.37.808,M2_experiment1,2023.2.3,60.12274663829117,2024-02-04 22h02.53.337998 +0100,
6,ModifiedT,resources/new_sounds_not_modified/M1met.wav,0.532038259057699,resources/new_sounds_2/M3met.wav,0.558503401360544,resources/new_sounds_not_modified/M5mesh.wav,0.5032130872900709,1,M,,,,,0,19,19,5,368.6357837000396,,,,,,,,,,,,,,,,,,,,,,,,,,,,,,,,,,,,,,,,,,,,,,,,,,,,,,,,,,,,,,,,,,,,,,,,,,,,368.5994709000224,368.6357837000396,369.1135552000487,0.5144434999674559,369.6468044000212,370.14681830001064,370.1466749899555,370.7215802000137,378.09426469996106,371.19716510002036,371.19679819000885,371.6975861999672,371.71779959998094,372.19781659997534,380.011518000043,t,8.30542820005212,None,p,1,9.477981899981387,378.09426469996106,6.201171199907549,None,,,,,Paul,001,2024-02-04_22h01.37.808,M2_experiment1,2023.2.3,60.12274663829117,2024-02-04 22h02.53.337998 +0100,
15,ModifiedSH,resources/new_sounds_not_modified/M2fish.wav,0.602031419699607,resources/new_sounds_not_modified/M5fit.wav,0.593107043618346,resources/new_sounds_2/M1fish.wav,0.512562358276644,1,M,,,,,0,20,20,14,380.0490170000121,,,,,,,,,,,,,,,,,,,,,,,,,,,,,,,,,,,,,,,,,,,,,,,,,,,,,,,,,,,,,,,,,,,,,,,,,,,,380.01240989996586,380.0490170000121,380.5260777999647,0.5140289000701159,381.14327500003856,381.6257764999755,381.62640048994217,382.2357408000389,390.63988779997453,382.709100499982,382.7086882899748,383.23561309999786,383.23561309999786,383.72525090002455,393.9405973999528,r,10.699448199942708,None,p,1,10.610904300003313,390.63988779997453,7.241775700007565,None,,,,,Paul,001,2024-02-04_22h01.37.808,M2_experiment1,2023.2.3,60.12274663829117,2024-02-04 22h02.53.337998 +0100,
19,ModifiedT,resources/new_sounds_2/F2put.wav,0.521360544217687,resources/new_sounds_not_modified/F4push.wav,0.436144678520506,resources/new_sounds_not_modified/F5put.wav,0.363522850118329,2,F,,,,,0,21,21,18,393.9698140999535,,,,,,,,,,,,,,,,,,,,,,,,,,,,,,,,,,,,,,,,,,,,,,,,,,,,,,,,,,,,,,,,,,,,,,,,,,,,393.9415591999423,393.9698140999535,394.45492639997974,0.5137315999018028,394.9885008999845,395.47132939996663,395.47166458994616,395.92119260004256,395.92119260004256,396.4042160999961,396.4048419899773,396.77845620003063,396.77845620003063,397.27102500002366,399.0731100999983,r,2.282936399918981,None,None,0,1.0473242999287322,396.77845620003063,,,,,,,Paul,001,2024-02-04_22h01.37.808,M2_experiment1,2023.2.3,60.12274663829117,2024-02-04 22h02.53.337998 +0100,
,,,,,,,,,,,,,,,,,,,,,,,,,,,,,,,,,,,,,,,,,,,,,,,,,,,,,,,,,,,,,,,,,,,,,,,,,,,,,,,,,,,,,,,,,,,,,,,,,,,,,,,,,,,,,,,,,,,,,,399.07370249996893,399.088138799998,402.08771720004734,402.0718987999717,,,,,,,,
